timestamp_sec_gps,timestamp_nanosec_gps,timestamp_sec_imu,timestamp_nanosec_imu,latitude,longitude,altitude,utm_easting,utm_northing,zone,letter,orientation_x,orientation_y,orientation_z,orientation_w,linear_acceleration_x,linear_acceleration_y,linear_acceleration_z,angular_velocity_x,angular_velocity_y,angular_velocity_z,magnetic_field_x,magnetic_field_y,magnetic_field_z
,,1729521988.0,570443003.0,,,,,,,,-0.0066109185409173755,0.003525125928839175,0.04415709430748411,0.9989965066333071,0.09,0.137,-10.19,-0.000985,-0.000687,-0.000277,-2.3230000000000003e-05,-8.61e-06,2.9020000000000003e-05
,,1729521988.0,597935642.0,,,,,,,,-0.006610564312336535,0.0035163503327105793,0.044165757439840324,0.9989961569443474,0.06,0.128,-10.176,-0.000157,-0.000192,-0.000337,-2.3400000000000003e-05,-8.720000000000001e-06,2.883e-05
,,1729521988.0,620114759.0,,,,,,,,-0.0066109185409173755,0.003525125928839175,0.04415709430748411,0.9989965066333071,0.067,0.125,-10.169,-0.000892,-0.000268,-0.000196,-2.3400000000000003e-05,-8.939999999999999e-06,2.8899999999999998e-05
,,1729521988.0,646689706.0,,,,,,,,-0.006619667188706066,0.00352468281800336,0.044165842955272795,0.9989960635224713,0.118,0.125,-10.221,-0.001112,-0.000357,-0.000157,-2.334e-05,-8.720000000000001e-06,2.8960000000000004e-05
,,1729521988.0,670564423.0,,,,,,,,-0.006645790093396039,0.0035235845533242998,0.04415721733069005,0.9989962752600934,0.097,0.127,-10.196,-0.001047,-7.1e-05,-0.000222,-2.318e-05,-8.730000000000001e-06,2.8899999999999998e-05
,,1729521988.0,695570178.0,,,,,,,,-0.0066378420322044905,0.003541405710339187,0.044157296537117204,0.9989962615852392,0.1,0.137,-10.21,-0.000277,-0.000746,-0.000905,-2.324e-05,-8.720000000000001e-06,2.8960000000000004e-05
,,1729521988.0,720179874.0,,,,,,,,-0.006637903840383281,0.0035412898576011164,0.04417473230437055,0.9989954907428701,0.073,0.134,-10.161,7e-06,-0.002765,-0.001267,-2.3400000000000003e-05,-8.83e-06,2.895e-05
,,1729521988.0,745113443.0,,,,,,,,-0.006620529898462923,0.003541945302081126,0.044192106246290906,0.9989948352983901,0.083,0.125,-10.175,5.1e-05,-0.002143,0.00092,-2.3350000000000002e-05,-8.83e-06,2.8840000000000002e-05
,,1729521988.0,770911317.0,,,,,,,,-0.0066114884777598495,0.0035334976648934936,0.044209456331867104,0.9989941574329657,0.07,0.119,-10.152,-0.000426,-0.002898,-0.0003,-2.334e-05,-8.78e-06,2.8720000000000003e-05
,,1729521988.0,796906158.0,,,,,,,,-0.006602708929973016,0.0035339987045943286,0.04419198974960523,0.9989949865389279,0.112,0.106,-10.152,-0.000703,0.000158,-0.000972,-2.324e-05,-8.840000000000002e-06,2.8840000000000002e-05
,,1729521988.0,821321929.0,,,,,,,,-0.006602292946944147,0.003525338425629809,0.044183217197034726,0.9989954079148448,0.079,0.11,-10.17,0.00177,-0.001416,-0.001888,-2.3400000000000003e-05,-8.720000000000001e-06,2.9010000000000005e-05
,,1729521988.0,851678174.0,,,,,,,,-0.0066019078036204755,0.003516620527026194,0.04418316251864507,0.9989954436048607,0.047,0.111,-10.13,-0.000259,-0.003323,-0.002205,-2.3290000000000002e-05,-8.56e-06,2.8899999999999998e-05
,,1729521988.0,874079973.0,,,,,,,,-0.006602647249054213,0.003534113943066443,0.044174553991149286,0.9989957576824964,0.075,0.134,-10.182,0.000675,0.000973,-0.001717,-2.3290000000000002e-05,-8.78e-06,2.8840000000000002e-05
,,1729521988.0,895990814.0,,,,,,,,-0.006602323711074138,0.003525280809620522,0.04419193507489244,0.9989950223054987,0.113,0.127,-10.177,-0.000837,-0.000947,-0.000438,-2.328e-05,-8.390000000000001e-06,2.9010000000000005e-05
,,1729521988.0,920751840.0,,,,,,,,-0.006593991053858703,0.003534384352321829,0.04419195890796595,0.9989950441203942,0.101,0.11,-10.215,0.000456,0.001035,-0.000106,-2.3290000000000002e-05,-8.720000000000001e-06,2.8840000000000002e-05
,,1729521988.0,945765430.0,,,,,,,,-0.006594407191716409,0.0035430447005793254,0.04420073137760528,0.9989946225949989,0.11,0.126,-10.167,-0.00107,-0.002396,0.000249,-2.334e-05,-8.550000000000001e-06,2.9010000000000005e-05
,,1729521988.0,973524554.0,,,,,,,,-0.006594499946149887,0.003542872058188594,0.04422688498051595,0.9989934650802075,0.075,0.09,-10.141,-0.000642,-0.00296,-0.000976,-2.3230000000000003e-05,-8.67e-06,2.8780000000000002e-05
,,1729521988.0,995092099.0,,,,,,,,-0.00661238316466627,0.0035507026260769366,0.044244437267164254,0.9989925418493658,0.073,0.081,-10.165,-0.000782,-0.002222,-0.000884,-2.3290000000000002e-05,-8.56e-06,2.8899999999999998e-05
,,1729521989.0,20255477.0,,,,,,,,-0.00662080806177677,0.003541425315955114,0.04427056698079937,0.9989913613773341,0.082,0.124,-10.149,-2e-05,8.6e-05,-0.000331,-2.334e-05,-8.720000000000001e-06,2.889e-05
,,1729521989.0,45136409.0,,,,,,,,-0.006620838966290656,0.003541367538370357,0.04427928482334107,0.9989909750057177,0.078,0.16,-10.178,0.00023,-0.001818,-0.000499,-2.334e-05,-8.78e-06,2.8960000000000004e-05
,,1729521989.0,71173677.0,,,,,,,,-0.006603109806918956,0.003533249628287039,0.044305321851203915,0.9989899666881561,0.056,0.157,-10.149,-0.000695,-0.003674,-0.000575,-2.334e-05,-8.720000000000001e-06,2.883e-05
,,1729521989.0,98624431.0,,,,,,,,-0.006594361137566298,0.003533693811815239,0.04429657318185126,0.9989904108716843,0.092,0.062,-10.216,-0.000631,0.000902,-0.001268,-2.3230000000000003e-05,-8.67e-06,2.8960000000000004e-05
,,1729521989.0,120761245.0,,,,,,,,-0.006593975005421549,0.0035249759567524998,0.044296518586961875,0.998990446640611,0.03,0.083,-10.131,-0.000848,-0.00327,-0.002254,-2.334e-05,-8.66e-06,2.907e-05
,,1729521989.0,146712700.0,,,,,,,,-0.006602754356099384,0.0035244741573036264,0.04431398501123066,0.9989896157864965,0.085,0.104,-10.156,-0.001114,-0.001038,-0.001842,-2.324e-05,-8.730000000000001e-06,2.8899999999999998e-05
,,1729521989.0,171669276.0,,,,,,,,-0.006602785112687193,0.0035244165372678177,0.04432270283853756,0.9989892290359862,0.08,0.115,-10.212,-0.001255,-0.000332,-0.000723,-2.339e-05,-8.61e-06,2.913e-05
,,1729521989.0,199753066.0,,,,,,,,-0.006594128805235748,0.003524688236960465,0.04434010772600551,0.9989885128894017,0.12,0.145,-10.21,-0.000699,0.000829,-0.001105,-2.339e-05,-8.500000000000002e-06,2.889e-05
,,1729521989.0,220286764.0,,,,,,,,-0.006594128805235748,0.003524688236960465,0.04434010772600551,0.9989885128894017,0.089,0.126,-10.187,-0.001048,-0.000189,0.000392,-2.334e-05,-8.550000000000001e-06,2.889e-05
,,1729521989.0,247441233.0,,,,,,,,-0.006585859173779865,0.0035336780715553968,0.04435756711522553,0.9989877605946171,0.073,0.143,-10.207,-0.001055,0.000622,-0.000907,-2.3290000000000002e-05,-8.61e-06,2.8960000000000004e-05
,,1729521989.0,270999994.0,,,,,,,,-0.006595350314202065,0.003550726640733798,0.044357707125969544,0.9989876313113604,0.095,0.119,-10.121,0.000186,-0.001513,-0.000598,-2.324e-05,-8.720000000000001e-06,2.8960000000000004e-05
,,1729521989.0,297638082.0,,,,,,,,-0.006595474253925361,0.0035504964174140076,0.044392578345644376,0.9989860823266666,0.106,0.115,-10.184,0.000785,0.000935,-0.00045,-2.3290000000000002e-05,-8.83e-06,2.8960000000000004e-05
,,1729521989.0,320156953.0,,,,,,,,-0.0065955362207733735,0.0035503813041317805,0.044410013935200304,0.9989853073778568,0.105,0.108,-10.2,-0.000848,0.001316,0.000425,-2.334e-05,-8.550000000000001e-06,2.907e-05
,,1729521989.0,346366348.0,,,,,,,,-0.006595210913310753,0.0035415483858633194,0.04442739492778807,0.9989845680529655,0.111,0.133,-10.165,-0.000831,-0.000872,-0.001332,-2.3230000000000003e-05,-8.61e-06,2.8960000000000004e-05
,,1729521989.0,370429613.0,,,,,,,,-0.006595691129103485,0.0035500935161946923,0.044453602849893255,0.9989833686744838,0.112,0.138,-10.189,-0.001049,0.0002,-0.000699,-2.334e-05,-8.78e-06,2.9080000000000003e-05
,,1729521989.0,397341813.0,,,,,,,,-0.006604470856374273,0.0035495903159713104,0.04447106936979011,0.9989825350637535,0.085,0.129,-10.144,0.000249,-0.000941,0.000356,-2.339e-05,-8.49e-06,2.913e-05
,,1729521989.0,422498398.0,,,,,,,,-0.006587128267082251,0.0035501940326149077,0.04449716070035966,0.9989814855907642,0.1,0.094,-10.178,0.000331,0.000744,0.000143,-2.3230000000000003e-05,-8.56e-06,2.8720000000000003e-05
1729521992.0,538662087.0,,,42.337743333333336,-71.08989666666666,10.9,327834.3763478021,4689391.817040406,19.0,T,,,,,,,,,,,,,
,,1729521989.0,445056028.0,,,,,,,,-0.006586802195268413,0.0035413612944460576,0.04451454170544382,0.9989807447462524,0.093,0.108,-10.158,-0.000948,-0.000878,-0.000514,-2.3290000000000002e-05,-8.56e-06,2.8960000000000004e-05
,,1729521989.0,470430544.0,,,,,,,,-0.006594774627359123,0.0035234797405615447,0.0445231811871851,0.9989803703652567,0.101,0.099,-10.19,-0.001354,-0.000643,-0.000529,-2.334e-05,-8.500000000000002e-06,2.907e-05
,,1729521989.0,495784388.0,,,,,,,,-0.006586149131194073,0.0035236958547064856,0.044549303668511814,0.9989792619217858,0.093,0.1,-10.173,-0.001588,0.000608,-0.000613,-2.3230000000000003e-05,-8.56e-06,2.8840000000000002e-05
,,1729521989.0,521856707.0,,,,,,,,-0.006586179880990544,0.003523638379578631,0.04455802140545524,0.9989788731177333,0.068,0.13,-10.205,-0.001477,-0.001041,-0.000868,-2.3290000000000002e-05,-8.61e-06,2.8780000000000002e-05
,,1729521989.0,544959893.0,,,,,,,,-0.0065862106302854466,0.0035235809041824356,0.044566739139005364,0.9989784842376042,0.082,0.116,-10.184,-0.001411,-0.002208,-0.000573,-2.334e-05,-8.56e-06,2.883e-05
,,1729521989.0,570293232.0,,,,,,,,-0.00658659912113505,0.0035322986549433865,0.044566793648139605,0.9989784484572998,0.085,0.128,-10.183,7.9e-05,0.000879,-0.000182,-2.339e-05,-8.500000000000002e-06,2.883e-05
,,1729521989.0,595771024.0,,,,,,,,-0.006595705342460246,0.003540627486181751,0.044566879053380484,0.9989783550805698,0.104,0.135,-10.234,-0.000752,0.002752,-0.000334,-2.324e-05,-8.78e-06,2.8960000000000004e-05
,,1729521989.0,620895351.0,,,,,,,,-0.006595736240012711,0.0035405699276595762,0.044575596782409556,0.9989779661231432,0.083,0.129,-10.23,-0.001605,0.003155,-0.000199,-2.3290000000000002e-05,-8.720000000000001e-06,2.8960000000000004e-05
,,1729521989.0,648149638.0,,,,,,,,-0.006595798033610754,0.003540454809806341,0.044593032230283144,0.9989771879800603,0.062,0.125,-10.196,-0.000997,-0.001864,-0.000893,-2.334e-05,-8.500000000000002e-06,2.895e-05
,,1729521989.0,670783537.0,,,,,,,,-0.006595890720240573,0.0035402821310043416,0.04461918537662221,0.9989760201948624,0.067,0.125,-10.169,0.000714,-0.000501,-0.001542,-2.3290000000000002e-05,-8.550000000000001e-06,2.9080000000000003e-05
,,1729521989.0,695492467.0,,,,,,,,-0.006604701102251985,0.0035397198455648982,0.0446453693839627,0.9989747941261252,0.107,0.138,-10.186,-8.9e-05,0.001527,0.00069,-2.3290000000000002e-05,-8.56e-06,2.9020000000000003e-05
,,1729521989.0,720480509.0,,,,,,,,-0.006604762881011931,0.0035396045712454294,0.04466280477646386,0.9989740147652811,0.118,0.117,-10.187,-0.000913,-0.001467,-0.000358,-2.334e-05,-8.61e-06,2.889e-05
,,1729521989.0,745511229.0,,,,,,,,-0.006596434514285692,0.0035487120400227584,0.044662828460859436,0.9989740364235857,0.119,0.108,-10.185,0.000695,0.00069,-0.000242,-2.3290000000000002e-05,-8.550000000000001e-06,2.9080000000000003e-05
,,1729521989.0,778567454.0,,,,,,,,-0.006596496449990298,0.003548596909981098,0.04468026384013355,0.9989732567580235,0.109,0.118,-10.204,-0.001667,0.000985,-0.001626,-2.334e-05,-8.550000000000001e-06,2.9010000000000005e-05
,,1729521989.0,795843987.0,,,,,,,,-0.0065957791218227,0.003531046380951936,0.044697590054956174,0.9989725485980636,0.096,0.113,-10.156,-0.00014,-0.001854,0.000252,-2.3290000000000002e-05,-8.500000000000002e-06,2.889e-05
,,1729521989.0,821051169.0,,,,,,,,-0.006587543751773343,0.0035399816801595786,0.04472376676551923,0.9989713997324078,0.089,0.094,-10.178,-0.001012,0.000175,0.000241,-2.3230000000000003e-05,-8.56e-06,2.8899999999999998e-05
,,1729521989.0,845625980.0,,,,,,,,-0.006578918765960179,0.003540199734039454,0.04474988886791072,0.9989702859745248,0.089,0.146,-10.164,-0.000253,-0.00042,-0.00052,-2.334e-05,-8.56e-06,2.883e-05
,,1729521989.0,870908389.0,,,,,,,,-0.006587667316431515,0.00353975172934677,0.044758637418382055,0.998969837969832,0.054,0.145,-10.171,-0.000124,-0.000134,0.000479,-2.345e-05,-8.720000000000001e-06,2.889e-05
,,1729521989.0,900193778.0,,,,,,,,-0.0065873079662370285,0.0035309765686282967,0.04476730057453565,0.9989694832063185,0.038,0.119,-10.161,-0.001707,-0.002814,-0.000576,-2.334e-05,-8.56e-06,2.883e-05
,,1729521989.0,923069239.0,,,,,,,,-0.006596477630578223,0.0035391884422485112,0.04478482125919241,0.9989686083220142,0.086,0.097,-10.138,-0.001213,-0.000907,-0.000815,-2.3400000000000003e-05,-8.67e-06,2.8770000000000004e-05
,,1729521989.0,945799831.0,,,,,,,,-0.006605195275996581,0.003538797620820809,0.04478485214273271,0.9989685507188494,0.067,0.112,-10.192,-0.001268,-0.001342,-0.001198,-2.3290000000000002e-05,-8.56e-06,2.8960000000000004e-05
,,1729521989.0,971091367.0,,,,,,,,-0.006613912920911922,0.003538406799123612,0.04478488302286245,0.9989684930396089,0.12,0.129,-10.203,-9.9e-05,0.00035,0.000169,-2.3290000000000002e-05,-8.61e-06,2.8960000000000004e-05
,,1729521989.0,996137257.0,,,,,,,,-0.0066226614400853095,0.0035379581836679783,0.04479363154203584,0.9989680444241532,0.098,0.139,-10.207,-0.001231,-0.000603,0.001172,-2.3290000000000002e-05,-8.67e-06,2.8960000000000004e-05
,,1729521990.0,22864910.0,,,,,,,,-0.0066227540613444024,0.003537784801584498,0.04481978444892844,0.998966871387281,0.104,0.144,-10.194,-0.000233,0.000143,8.1e-05,-2.3290000000000002e-05,-8.83e-06,2.8960000000000004e-05
,,1729521990.0,49924897.0,,,,,,,,-0.006622455754528709,0.00352889377731876,0.044845882525073794,0.9989657335509737,0.052,0.131,-10.169,-0.00075,-0.001771,0.000932,-2.3230000000000003e-05,-8.500000000000002e-06,2.8899999999999998e-05
,,1729521990.0,70575041.0,,,,,,,,-0.006613799730332572,0.0035291696992935644,0.04486328696330026,0.9989650084448449,0.053,0.11,-10.141,-0.000406,-0.001908,0.000571,-2.3400000000000003e-05,-8.66e-06,2.895e-05
,,1729521990.0,97277479.0,,,,,,,,-0.006613439375316702,0.0035203943526017105,0.0448719498494164,0.9989646527079638,0.088,0.132,-10.21,-0.001061,0.000206,-0.000266,-2.3400000000000003e-05,-8.67e-06,2.883e-05
,,1729521990.0,124452371.0,,,,,,,,-0.0066047832122154435,0.0035206706594237912,0.044889354342943735,0.9989639270681906,0.099,0.124,-10.189,-0.000359,-0.000644,-0.001329,-2.312e-05,-8.56e-06,2.8960000000000004e-05
,,1729521990.0,146009496.0,,,,,,,,-0.0066048753808943365,0.0035204977453971455,0.0449155071420114,0.9989627515253026,0.082,0.108,-10.166,0.000403,0.000748,-0.000279,-2.3230000000000003e-05,-8.56e-06,2.8899999999999998e-05
,,1729521990.0,170600812.0,,,,,,,,-0.006604483847121267,0.0035117801314605676,0.044915452489798585,0.9989627872553903,0.085,0.103,-10.156,2e-05,-0.001504,-0.001414,-2.3290000000000002e-05,-8.500000000000002e-06,2.883e-05
,,1729521990.0,196099068.0,,,,,,,,-0.00659582754996096,0.0035120569742196116,0.04493285702593124,0.9989620607782002,0.061,0.106,-10.164,-0.00102,-0.002465,-0.000982,-2.3230000000000003e-05,-8.61e-06,2.8899999999999998e-05
,,1729521990.0,222580241.0,,,,,,,,-0.0065879241375727945,0.003529826812725748,0.04494165295789445,0.9989616546232604,0.116,0.141,-10.197,-0.000259,0.000882,-0.001434,-2.324e-05,-8.840000000000002e-06,2.8960000000000004e-05
,,1729521990.0,247002222.0,,,,,,,,-0.006596311407599344,0.003520601891975588,0.044959064350703,0.9989608483673631,0.118,0.143,-10.204,-0.002572,0.000145,-0.001186,-2.3290000000000002e-05,-8.56e-06,2.8899999999999998e-05
,,1729521990.0,270754198.0,,,,,,,,-0.006596703321559178,0.0035293194890284587,0.044959118921857534,0.9989608125622357,0.096,0.148,-10.195,-0.000611,0.00204,-0.001,-2.3230000000000003e-05,-8.500000000000002e-06,2.8960000000000004e-05
,,1729521990.0,296928668.0,,,,,,,,-0.006596372852689331,0.003520486764086826,0.04497649949975698,0.9989600635315111,0.09,0.141,-10.174,-0.000925,-0.00186,-0.000845,-2.3290000000000002e-05,-8.56e-06,2.8899999999999998e-05
,,1729521990.0,321713784.0,,,,,,,,-0.006605574871153172,0.003528638927349971,0.045002737562137095,0.9989587922931833,0.079,0.132,-10.177,-0.000668,0.000678,0.000466,-2.3400000000000003e-05,-8.66e-06,2.895e-05
,,1729521990.0,349194920.0,,,,,,,,-0.006596526456623267,0.003520198939673241,0.0450200873124401,0.9989581001105665,0.075,0.117,-10.173,0.000417,-0.000247,-0.001512,-2.334e-05,-8.61e-06,2.889e-05
,,1729521990.0,370730790.0,,,,,,,,-0.0065961952955409225,0.003511366241518023,0.045037467841746615,0.9989573499430017,0.102,0.13,-10.172,0.000583,0.001591,-0.000916,-2.334e-05,-8.61e-06,2.895e-05
,,1729521990.0,396682120.0,,,,,,,,-0.006596710764766274,0.0035198535415303972,0.04507239257451282,0.998955741494958,0.094,0.134,-10.203,0.000137,0.001573,0.000978,-2.3290000000000002e-05,-8.500000000000002e-06,2.895e-05
,,1729521990.0,420638524.0,,,,,,,,-0.006596710764766274,0.0035198535415303972,0.04507239257451282,0.998955741494958,0.087,0.112,-10.153,-0.00078,-0.001609,-0.000453,-2.3400000000000003e-05,-8.66e-06,2.9010000000000005e-05
1729521993.0,538869865.0,,,42.337743333333336,-71.08989666666666,10.9,327834.3763478021,4689391.817040406,19.0,T,,,,,,,,,,,,,
,,1729521990.0,449541440.0,,,,,,,,-0.006588478520194424,0.0035287919404788605,0.04509856893257285,0.9989545828807552,0.083,0.134,-10.191,-0.000734,0.000514,-0.000444,-2.3290000000000002e-05,-8.500000000000002e-06,2.907e-05
,,1729521990.0,470620901.0,,,,,,,,-0.006579429307636866,0.003520353124236847,0.04511591876363893,0.9989538888747466,0.065,0.11,-10.13,-0.00082,-0.002941,-0.001439,-2.334e-05,-8.720000000000001e-06,2.889e-05
,,1729521990.0,495640827.0,,,,,,,,-0.0065625107680542805,0.00352962900962134,0.045150781620377826,0.9989523923043293,0.084,0.112,-10.251,-0.000304,0.003688,0.000259,-2.328e-05,-8.33e-06,2.865e-05
,,1729521990.0,520762820.0,,,,,,,,-0.006545198989554334,0.003530188570488459,0.045185590002964474,0.9989509300235561,0.083,0.124,-10.182,0.001308,-0.00156,-0.001741,-2.3290000000000002e-05,-8.720000000000001e-06,2.8899999999999998e-05
,,1729521990.0,546757910.0,,,,,,,,-0.006528520827103938,0.0035484692020783543,0.04517691878772301,0.9989513665794644,0.086,0.13,-10.186,-0.000699,0.002713,-0.000467,-2.3290000000000002e-05,-8.56e-06,2.8899999999999998e-05
,,1729521990.0,570736403.0,,,,,,,,-0.006520984781631371,0.003575015988497454,0.04517704941449192,0.9989513152423196,0.123,0.101,-10.196,0.000188,0.000169,-0.000466,-2.3230000000000003e-05,-8.67e-06,2.8840000000000002e-05
,,1729521990.0,595911326.0,,,,,,,,-0.006521534960964085,0.003583448950243347,0.04522069070171391,0.9989493068258438,0.123,0.113,-10.181,-0.001252,0.001278,-8.1e-05,-2.324e-05,-8.720000000000001e-06,2.9020000000000003e-05
,,1729521990.0,620580162.0,,,,,,,,-0.006530283705746938,0.0035829973377960725,0.04522943944649676,0.9989488552133964,0.123,0.125,-10.124,-0.001867,-0.002451,-0.000169,-2.3290000000000002e-05,-8.61e-06,2.8780000000000002e-05
,,1729521990.0,645708448.0,,,,,,,,-0.0065386380950892865,0.0035738280836908557,0.04523813417543395,0.9989484397009764,0.077,0.126,-10.163,-0.000698,-0.001332,-0.000586,-2.334e-05,-8.720000000000001e-06,2.883e-05
,,1729521990.0,672160864.0,,,,,,,,-0.006547417931684998,0.0035733190329042108,0.04525560029268772,0.9989475928954757,0.089,0.126,-10.247,-6.3e-05,0.000577,-0.000623,-2.3230000000000003e-05,-8.56e-06,2.8840000000000002e-05
,,1729521990.0,698838587.0,,,,,,,,-0.0065470856448333154,0.0035644872833660987,0.04527298112412614,0.9989468390660738,0.048,0.11,-10.175,-0.000886,-0.002495,-0.00037,-2.3290000000000002e-05,-8.78e-06,2.9080000000000003e-05
,,1729521990.0,720555087.0,,,,,,,,-0.006555771997459447,0.0035641494119778684,0.045264294771500006,0.9989471769374622,0.102,0.153,-10.196,-0.000873,0.000813,0.000338,-2.3290000000000002e-05,-8.78e-06,2.8840000000000002e-05
,,1729521990.0,745660742.0,,,,,,,,-0.006564520555229346,0.003563697120240427,0.0452730433292699,0.9989467246457245,0.06,0.117,-10.178,-0.001126,-0.001399,-0.000106,-2.3290000000000002e-05,-8.56e-06,2.9020000000000003e-05
,,1729521990.0,770590561.0,,,,,,,,-0.006564520555229346,0.003563697120240427,0.0452730433292699,0.9989467246457245,0.098,0.158,-10.202,4.8e-05,0.000155,-0.000204,-2.334e-05,-8.61e-06,2.889e-05
,,1729521990.0,799373155.0,,,,,,,,-0.006564489455855241,0.0035637544063534827,0.0452643258728476,0.9989471196895218,0.079,0.136,-10.141,0.000156,-0.000972,-0.000881,-2.3230000000000003e-05,-8.61e-06,2.8960000000000004e-05
,,1729521990.0,823907206.0,,,,,,,,-0.006555771997459447,0.0035641494119778684,0.045264294771500006,0.9989471769374622,0.087,0.112,-10.18,-0.000359,0.001074,0.000715,-2.3290000000000002e-05,-8.67e-06,2.8780000000000002e-05
,,1729521990.0,845572234.0,,,,,,,,-0.0065391262312292,0.0035823743799577373,0.04526434057593686,0.9989472187729237,0.089,0.09,-10.192,-0.000752,-0.002007,-0.001151,-2.334e-05,-8.67e-06,2.895e-05
,,1729521990.0,871476176.0,,,,,,,,-0.006530866029845115,0.0035913728799762505,0.04528179815107847,0.9989464493084412,0.08,0.115,-10.174,0.000364,0.001946,0.000283,-2.313e-05,-8.730000000000001e-06,2.867e-05
,,1729521990.0,895669891.0,,,,,,,,-0.006531292173562,0.003600033355510193,0.04529056952474148,0.9989460177079177,0.122,0.114,-10.185,9.8e-05,-0.000132,0.000566,-2.3290000000000002e-05,-8.61e-06,2.8899999999999998e-05
,,1729521990.0,923022786.0,,,,,,,,-0.006513825852145634,0.0036008806685112684,0.04528178923416088,0.998946526744516,0.105,0.094,-10.202,0.000256,0.000537,-0.000536,-2.334e-05,-8.500000000000002e-06,2.889e-05
,,1729521990.0,948053839.0,,,,,,,,-0.006513431124259753,0.003592163195898173,0.04528173546290024,0.9989465631414084,0.081,0.141,-10.192,9.5e-05,-0.002207,-0.001884,-2.3290000000000002e-05,-8.56e-06,2.8960000000000004e-05
,,1729521990.0,976972009.0,,,,,,,,-0.006513368428192666,0.0035922768761697697,0.04526430054942603,0.9989473533046348,0.087,0.128,-10.155,-0.000624,-0.000945,-0.000716,-2.324e-05,-8.840000000000002e-06,2.8899999999999998e-05
,,1729521991.0,999515.0,,,,,,,,-0.006504619615535825,0.003592728645223321,0.04525555173676918,0.9989478050736883,0.066,0.116,-10.186,-0.000193,-0.000727,-0.001158,-2.3230000000000003e-05,-8.61e-06,2.8899999999999998e-05
,,1729521991.0,21490576.0,,,,,,,,-0.0064955389299651755,0.0035843494059889284,0.04526418422227853,0.9989475031452036,0.077,0.108,-10.191,-3.5e-05,-0.000388,0.000551,-2.3290000000000002e-05,-8.730000000000001e-06,2.8720000000000003e-05
,,1729521991.0,48600118.0,,,,,,,,-0.0065034361126224864,0.003566576193345428,0.04525539062767345,0.9989479137933682,0.075,0.115,-10.158,-0.000394,-0.000641,-4.4e-05,-2.3230000000000003e-05,-8.500000000000002e-06,2.8840000000000002e-05
,,1729521991.0,71024339.0,,,,,,,,-0.006503498360129551,0.0035664626864293546,0.04527282555093141,0.9989471237856492,0.049,0.109,-10.154,-0.000965,-0.001907,-0.001315,-2.318e-05,-8.67e-06,2.8960000000000004e-05
,,1729521991.0,95395974.0,,,,,,,,-0.006494812028159016,0.003566801088436041,0.04528151188290193,0.9989467853836425,0.055,0.098,-10.195,-0.000951,0.001036,-6.2e-05,-2.3290000000000002e-05,-8.550000000000001e-06,2.9080000000000003e-05
,,1729521991.0,121083653.0,,,,,,,,-0.006485761948051718,0.0035583655715695733,0.04529886210331292,0.9989460876436512,0.108,0.114,-10.199,0.000327,-0.002048,-0.00089,-2.324e-05,-8.730000000000001e-06,2.8840000000000002e-05
,,1729521991.0,145561190.0,,,,,,,,-0.00648655171348408,0.0035758005077334634,0.04529896921226624,0.9989460154011843,0.1,0.122,-10.189,-0.001793,0.000722,0.000431,-2.318e-05,-8.62e-06,2.8720000000000003e-05
,,1729521991.0,173547664.0,,,,,,,,-0.006495331563349731,0.0035752918351398197,0.04531643530441699,0.9989451679884518,0.086,0.117,-10.171,-4e-06,-0.001395,-0.002248,-2.3290000000000002e-05,-8.61e-06,2.8840000000000002e-05
,,1729521991.0,198072546.0,,,,,,,,-0.0064866141219883725,0.0035756872955043425,0.04531640410238435,0.9989452246328757,0.088,0.125,-10.162,-0.000306,0.001372,-0.000793,-2.3290000000000002e-05,-8.56e-06,2.859e-05
,,1729521991.0,220751874.0,,,,,,,,-0.006487009156112053,0.0035844047562848314,0.04531645765105401,0.9989451883965965,0.1,0.12,-10.181,-2.1e-05,0.001599,0.000727,-2.3290000000000002e-05,-8.67e-06,2.8960000000000004e-05
,,1729521991.0,245421210.0,,,,,,,,-0.006469116815478578,0.003576591123349311,0.04529890679587456,0.9989461284607206,0.1,0.11,-10.155,0.001196,-0.002294,0.000375,-2.3290000000000002e-05,-8.67e-06,2.8840000000000002e-05
,,1729521991.0,272843040.0,,,,,,,,-0.006469179237784372,0.003576478215416445,0.045316341687965944,0.9989453376935012,0.051,0.108,-10.194,-0.001542,0.000407,5.5e-05,-2.334e-05,-8.67e-06,2.9010000000000005e-05
,,1729521991.0,297759856.0,,,,,,,,-0.006460066759378856,0.003568156212512167,0.045316257151682096,0.9989454302595662,0.076,0.105,-10.163,0.001263,-0.001695,0.000111,-2.334e-05,-8.78e-06,2.8960000000000004e-05
,,1729521991.0,323646169.0,,,,,,,,-0.006451806785751709,0.0035771565295128135,0.04533371413999859,0.9989446593794049,0.054,0.13,-10.2,-0.000162,0.000211,0.000466,-2.3230000000000003e-05,-8.61e-06,2.8899999999999998e-05
,,1729521991.0,346719597.0,,,,,,,,-0.006459733846264533,0.003559326006706341,0.045333638704865425,0.9989446752642461,0.049,0.103,-10.128,-0.001278,-0.003755,-0.001258,-2.3290000000000002e-05,-8.720000000000001e-06,2.8899999999999998e-05
,,1729521991.0,370892723.0,,,,,,,,-0.006459795967238625,0.0035592132625398105,0.045351073571588456,0.9989438838908409,0.093,0.121,-10.149,-0.000804,0.000447,-0.001103,-2.318e-05,-8.500000000000002e-06,2.8780000000000002e-05
,,1729521991.0,402424477.0,,,,,,,,-0.006460222443414613,0.0035678743355284986,0.04535984432554483,0.9989434520139113,0.089,0.127,-10.184,-0.001526,0.000124,-0.000868,-2.3290000000000002e-05,-8.56e-06,2.8899999999999998e-05
,,1729521991.0,420488044.0,,,,,,,,-0.006460981986821008,0.003585365608510579,0.045351233539497,0.9989437754356675,0.104,0.107,-10.168,0.000209,0.000556,-0.000337,-2.3230000000000003e-05,-8.45e-06,2.8899999999999998e-05
,,1729521991.0,445423948.0,,,,,,,,-0.006469699415536709,0.0035849698442015107,0.04535126482598754,0.9989437190149263,0.131,0.101,-10.215,-0.000166,0.002032,-0.000688,-2.3290000000000002e-05,-8.56e-06,2.865e-05
1729521994.0,541450166.0,,,42.337743333333336,-71.08989666666666,10.9,327834.3763478021,4689391.817040406,19.0,T,,,,,,,,,,,,,
,,1729521991.0,470595578.0,,,,,,,,-0.006470157474786728,0.0035935743668439176,0.04536875306718739,0.9989428910256332,0.061,0.141,-10.167,-0.000327,-0.001556,-0.002497,-2.3230000000000003e-05,-8.56e-06,2.8720000000000003e-05
,,1729521991.0,496188733.0,,,,,,,,-0.006478968962755696,0.003593008831868338,0.045394936672014045,0.9989416464304898,0.07,0.138,-10.227,-0.00064,-0.001349,-5.7e-05,-2.3290000000000002e-05,-8.56e-06,2.8780000000000002e-05
,,1729521991.0,523620732.0,,,,,,,,-0.006487749074823625,0.003592499454141977,0.045412402838065725,0.9989407974089793,0.069,0.161,-10.181,-0.001501,-0.00288,-0.000551,-2.318e-05,-8.390000000000001e-06,2.8780000000000002e-05
,,1729521991.0,545868867.0,,,,,,,,-0.0065052465659015185,0.0035915933202198894,0.04542990032914361,0.9989398912750571,0.086,0.139,-10.224,-0.001285,-0.002095,-0.001611,-2.3230000000000003e-05,-8.67e-06,2.9020000000000003e-05
,,1729521991.0,570467477.0,,,,,,,,-0.006504913075934301,0.0035827623739143654,0.04544728141974327,0.9989391345478467,0.045,0.13,-10.192,0.000215,-0.004259,-0.001684,-2.318e-05,-8.390000000000001e-06,2.8840000000000002e-05
,,1729521991.0,595571632.0,,,,,,,,-0.0065050381339707385,0.003582535307430206,0.04548215094589789,0.9989375475298649,0.077,0.115,-10.194,-0.000543,-0.00034,0.000292,-2.3290000000000002e-05,-8.56e-06,2.8899999999999998e-05
,,1729521991.0,620694000.0,,,,,,,,-0.0065046416550754195,0.0035738179132045068,0.045482097251089926,0.9989375837819421,0.091,0.101,-10.17,0.000504,-0.0014,-0.000823,-2.3230000000000003e-05,-8.61e-06,2.8840000000000002e-05
,,1729521991.0,648751283.0,,,,,,,,-0.0064869037768769105,0.0035657245040523655,0.0455081334362628,0.9989365422684756,0.083,0.089,-10.186,0.000633,0.002325,-7.3e-05,-2.307e-05,-8.56e-06,2.873e-05
,,1729521991.0,670673960.0,,,,,,,,-0.006486507068140155,0.0035570071187298858,0.045508079887619714,0.9989365783628881,0.103,0.119,-10.171,0.000651,-0.001015,-0.00029,-2.318e-05,-8.62e-06,2.8780000000000002e-05
,,1729521991.0,695580231.0,,,,,,,,-0.0064869037768769105,0.0035657245040523655,0.0455081334362628,0.9989365422684756,0.083,0.117,-10.139,-0.000282,-0.000843,-0.00043,-2.328e-05,-8.390000000000001e-06,2.8770000000000004e-05
,,1729521991.0,720617661.0,,,,,,,,-0.006486538108636035,0.0035569505131417987,0.04551679725204229,0.9989361811919362,0.081,0.083,-10.184,-0.001244,8.7e-05,-0.001266,-2.3230000000000003e-05,-8.62e-06,2.8720000000000003e-05
,,1729521991.0,746091035.0,,,,,,,,-0.006485775425388487,0.0035394591496763226,0.04552540750657145,0.998935855907385,0.049,0.1,-10.13,-0.001086,-0.002933,-0.000762,-2.3230000000000003e-05,-8.56e-06,2.8720000000000003e-05
,,1729521991.0,775785153.0,,,,,,,,-0.006495379614251681,0.003556326574663673,0.04555169771160148,0.9989345351025523,0.082,0.134,-10.176,-0.000276,0.000753,-0.000735,-2.318e-05,-8.500000000000002e-06,2.8780000000000002e-05
,,1729521991.0,795819807.0,,,,,,,,-0.006495441682870379,0.003556213208361584,0.045569132401312086,0.9989337399233008,0.116,0.128,-10.151,-0.000441,-0.001795,-0.001498,-2.318e-05,-8.390000000000001e-06,2.8660000000000003e-05
,,1729521991.0,820856695.0,,,,,,,,-0.006504159024008401,0.0035558155425273377,0.04556916343339163,0.9989336832018424,0.125,0.119,-10.162,0.000468,0.003384,-0.000535,-2.3230000000000003e-05,-8.62e-06,2.8720000000000003e-05
,,1729521991.0,845533491.0,,,,,,,,-0.006512510074402329,0.0035466436842470756,0.04557785802284654,0.998933264732513,0.099,0.125,-10.18,-0.001131,-0.000113,-0.001162,-2.312e-05,-8.56e-06,2.8720000000000003e-05
,,1729521991.0,872032335.0,,,,,,,,-0.006504252112812667,0.0035556452628237346,0.04559531544044376,0.9989324898616043,0.084,0.142,-10.184,0.000357,0.001931,-0.000689,-2.312e-05,-8.390000000000001e-06,2.8720000000000003e-05
,,1729521991.0,899707354.0,,,,,,,,-0.006504314169538878,0.003555531741667437,0.045612750094451544,0.9989316939210804,0.096,0.123,-10.183,0.00011,-0.001675,0.000233,-2.334e-05,-8.390000000000001e-06,2.859e-05
,,1729521991.0,920892218.0,,,,,,,,-0.006503916548056637,0.003546814398601089,0.04561269639396859,0.998931729951967,0.074,0.107,-10.18,-0.000754,-0.000788,-0.000465,-2.3290000000000002e-05,-8.56e-06,2.859e-05
,,1729521991.0,945891930.0,,,,,,,,-0.006495627876854649,0.0035558731029557466,0.045621436387135776,0.9989313525597922,0.102,0.14,-10.225,0.000614,8.3e-05,-0.000747,-2.3230000000000003e-05,-8.56e-06,2.8780000000000002e-05
,,1729521991.0,970428273.0,,,,,,,,-0.006495353994121976,0.0035469290344257412,0.045656252018703915,0.9989297954924161,0.073,0.098,-10.137,-0.000177,-0.001269,-0.001279,-2.3230000000000003e-05,-8.500000000000002e-06,2.8840000000000002e-05
,,1729521991.0,995999756.0,,,,,,,,-0.006486362200784295,0.0035383837187390153,0.04569103671719383,0.9989282937777703,0.088,0.129,-10.194,-0.000254,-0.00058,-0.000457,-2.334e-05,-8.500000000000002e-06,2.853e-05
,,1729521992.0,21161468.0,,,,,,,,-0.006486485709724735,0.0035381572998295936,0.04572590586478568,0.99892669825113,0.091,0.136,-10.191,-0.000492,-0.000823,-0.001357,-2.328e-05,-8.45e-06,2.859e-05
,,1729521992.0,45375062.0,,,,,,,,-0.006487407041956951,0.0035553654467149554,0.045760882046130304,0.9989250295196195,0.088,0.109,-10.157,-0.00089,0.000932,0.001305,-2.328e-05,-8.45e-06,2.853e-05
,,1729521992.0,70841143.0,,,,,,,,-0.00647868977633719,0.003555764785609733,0.045760851017971275,0.9989250860948895,0.079,0.108,-10.157,-0.000868,-0.001374,-0.000317,-2.339e-05,-8.390000000000001e-06,2.8710000000000005e-05
,,1729521992.0,95482513.0,,,,,,,,-0.006470034576011323,0.0035560512013692773,0.045778254512075935,0.9989243437649651,0.094,0.099,-10.171,-0.001205,0.000622,-0.001223,-2.3230000000000003e-05,-8.67e-06,2.8660000000000003e-05
,,1729521992.0,121588799.0,,,,,,,,-0.006470526966846547,0.003564599083207554,0.045804459660336805,0.9989231088474086,0.105,0.132,-10.177,-0.000664,-0.00041,0.000154,-2.334e-05,-8.500000000000002e-06,2.8410000000000004e-05
,,1729521992.0,145035906.0,,,,,,,,-0.00648808585920641,0.0035635731692818143,0.04583939082993801,0.9989213962752479,0.099,0.137,-10.187,-0.000595,-0.00116,-0.00113,-2.3290000000000002e-05,-8.78e-06,2.8780000000000002e-05
,,1729521992.0,170162317.0,,,,,,,,-0.006497202691325485,0.0035718903975482763,0.045839475535487346,0.9989213034262545,0.114,0.134,-10.21,-0.000587,0.002517,-0.001469,-2.3290000000000002e-05,-8.62e-06,2.8480000000000002e-05
,,1729521992.0,195108890.0,,,,,,,,-0.006496927466874357,0.0035629463616171798,0.045874290830990525,0.9989197389117246,0.107,0.112,-10.185,-0.000863,-0.000195,9.5e-05,-2.3290000000000002e-05,-8.500000000000002e-06,2.8410000000000004e-05
,,1729521992.0,220191248.0,,,,,,,,-0.006488610150728025,0.0035720639292542594,0.045874313268587895,0.9989197593799677,0.095,0.134,-10.224,0.00045,-0.001249,-0.000568,-2.3230000000000003e-05,-8.67e-06,2.8480000000000002e-05
,,1729521992.0,246888143.0,,,,,,,,-0.006497327369863052,0.003571663600213936,0.04587434443897947,0.9989197027181261,0.078,0.153,-10.197,-0.001308,-0.001315,0.000281,-2.3290000000000002e-05,-8.67e-06,2.8660000000000003e-05
,,1729521992.0,270670378.0,,,,,,,,-0.006497020742365508,0.0035627762712328566,0.045900442472877424,0.9989185375832748,0.078,0.128,-10.191,-0.000209,0.000892,6e-05,-2.3290000000000002e-05,-8.500000000000002e-06,2.865e-05
,,1729521992.0,295769782.0,,,,,,,,-0.006488365721577464,0.0035630635852196037,0.04591784579147845,0.9989177929769901,0.081,0.113,-10.185,-0.000873,-0.001903,0.000501,-2.3290000000000002e-05,-8.730000000000001e-06,2.8660000000000003e-05
,,1729521992.0,320071565.0,,,,,,,,-0.006479586323936804,0.003563577384539448,0.04590038028370994,0.9989186508255343,0.108,0.103,-10.197,0.000255,0.001633,-0.00036,-2.3290000000000002e-05,-8.730000000000001e-06,2.8480000000000002e-05
,,1729521992.0,345076153.0,,,,,,,,-0.0064712380682413724,0.0035727516426519858,0.045891685351074546,0.9989190716665699,0.11,0.128,-10.175,0.000614,-0.001245,-0.000258,-2.3230000000000003e-05,-8.51e-06,2.8360000000000003e-05
,,1729521992.0,371524818.0,,,,,,,,-0.006471175710976229,0.0035728645865187904,0.04587425091732419,0.9989198724754345,0.093,0.102,-10.207,-0.00031,0.001598,-0.000114,-2.313e-05,-8.730000000000001e-06,2.8610000000000002e-05
,,1729521992.0,396670359.0,,,,,,,,-0.006471175710976229,0.0035728645865187904,0.04587425091732419,0.9989198724754345,0.081,0.109,-10.155,-0.002098,0.000536,-0.000948,-2.312e-05,-8.45e-06,2.854e-05
,,1729521992.0,420190693.0,,,,,,,,-0.00647071359994835,0.003564260282321702,0.04585676308919606,0.9989207091622081,0.052,0.123,-10.178,-0.000899,-0.001405,-0.00108,-2.307e-05,-8.570000000000001e-06,2.849e-05
,,1729521992.0,445129139.0,,,,,,,,-0.006479892931098863,0.003572464258022554,0.04587428209470281,0.9989198159657371,0.108,0.114,-10.209,-0.001241,0.001544,-0.000717,-2.302e-05,-8.740000000000001e-06,2.849e-05
1729521995.0,540480310.0,,,42.337743333333336,-71.08989666666666,10.9,327834.3763478021,4689391.817040406,19.0,T,,,,,,,,,,,,,
,,1729521992.0,470601805.0,,,,,,,,-0.00647071359994835,0.003564260282321702,0.04585676308919606,0.9989207091622081,0.074,0.137,-10.15,-0.000295,0.00076,0.000407,-2.307e-05,-8.62e-06,2.855e-05
,,1729521992.0,495621439.0,,,,,,,,-0.006479368625292662,0.003563973193294664,0.0458393597301501,0.998921452856442,0.075,0.132,-10.186,-0.00076,0.000135,-0.000234,-2.313e-05,-8.62e-06,2.8360000000000003e-05
,,1729521992.0,520094099.0,,,,,,,,-0.006479368625292662,0.003563973193294664,0.0458393597301501,0.998921452856442,0.084,0.129,-10.107,0.000405,-0.001519,0.001013,-2.297e-05,-8.740000000000001e-06,2.8380000000000003e-05
,,1729521992.0,545111524.0,,,,,,,,-0.0064876552374799595,0.0035549125315999168,0.04583062005753996,0.998921832373061,0.078,0.115,-10.189,-0.000329,-0.000385,-0.000945,-2.302e-05,-8.62e-06,2.855e-05
,,1729521992.0,570299201.0,,,,,,,,-0.0064872247669102165,0.003546251886403571,0.045821849277531884,0.9989222683177951,0.065,0.109,-10.135,-0.00042,-0.002547,-0.0008,-2.307e-05,-8.51e-06,2.837e-05
,,1729521992.0,595491295.0,,,,,,,,-0.0064781080767201136,0.0035379344960678673,0.04582176486069368,0.9989223608470776,0.082,0.111,-10.218,-0.000294,0.002027,0.00072,-2.302e-05,-8.62e-06,2.849e-05
,,1729521992.0,625040084.0,,,,,,,,-0.006477739425544124,0.0035291607057219977,0.045830428629649006,0.9989219968187057,0.085,0.108,-10.197,0.00054,-0.00309,-0.00172,-2.307e-05,-8.62e-06,2.825e-05
,,1729521992.0,645109663.0,,,,,,,,-0.006486026420370466,0.0035201001031859584,0.04582168863422292,0.9989223759668446,0.076,0.139,-10.19,-0.000118,-0.000529,-0.000605,-2.296e-05,-8.51e-06,2.849e-05
,,1729521992.0,670088994.0,,,,,,,,-0.006477739425544124,0.0035291607057219977,0.045830428629649006,0.9989219968187057,0.06,0.122,-10.129,-0.000293,-0.000513,-0.000193,-2.296e-05,-8.350000000000001e-06,2.849e-05
,,1729521992.0,695311096.0,,,,,,,,-0.006477770223034543,0.0035291041766470875,0.04583914586681133,0.998921596834731,0.071,0.113,-10.169,0.00044,-0.001016,0.000451,-2.296e-05,-8.51e-06,2.849e-05
,,1729521992.0,721692202.0,,,,,,,,-0.006478231569984751,0.0035377083652820026,0.04585663380110752,0.9989207607571677,0.111,0.114,-10.161,-0.000863,0.000119,-0.000549,-2.302e-05,-8.46e-06,2.849e-05
,,1729521992.0,747923437.0,,,,,,,,-0.006478693218757573,0.003546312538615839,0.045874121716689,0.9989199242973773,0.104,0.122,-10.175,-0.000955,-0.001001,-0.000958,-2.296e-05,-8.46e-06,2.843e-05
,,1729521992.0,770021616.0,,,,,,,,-0.006461720741329518,0.0035557176557853383,0.04589154756155569,0.9989192003858064,0.117,0.13,-10.217,-0.000374,0.000565,-4.9e-05,-2.296e-05,-8.570000000000001e-06,2.8310000000000002e-05
,,1729521992.0,795077593.0,,,,,,,,-0.006461813827585658,0.003555548487113411,0.0459176991893381,0.9989179986055767,0.085,0.126,-10.216,0.000309,-0.001285,-0.001334,-2.296e-05,-8.29e-06,2.837e-05
,,1729521992.0,822061727.0,,,,,,,,-0.006461413541988601,0.003546831263565902,0.04591764588022324,0.9989180346353977,0.094,0.119,-10.18,-0.000835,0.001311,-0.00131,-2.296e-05,-8.46e-06,2.825e-05
,,1729521992.0,845194088.0,,,,,,,,-0.006461506395599641,0.00354666210293948,0.045943797477477434,0.9989168321719158,0.072,0.147,-10.166,0.000399,-0.000224,0.0001,-2.302e-05,-8.46e-06,2.855e-05
,,1729521992.0,872590995.0,,,,,,,,-0.00646113675544179,0.0035378885056841286,0.045952461358208775,0.9989164671542216,0.085,0.151,-10.166,-0.000582,-0.000352,0.000697,-2.296e-05,-8.350000000000001e-06,2.849e-05
,,1729521992.0,895024010.0,,,,,,,,-0.006461260247111401,0.003537662967309161,0.04598733009281431,0.9989148625021471,0.072,0.125,-10.163,-0.001336,-0.001285,-0.000712,-2.307e-05,-8.400000000000001e-06,2.8480000000000002e-05
,,1729521992.0,920302126.0,,,,,,,,-0.006453129665393858,0.0035464435984350158,0.0460396554510583,0.9989124736338377,0.056,0.123,-10.175,-0.001271,0.000254,-0.000344,-2.301e-05,-8.18e-06,2.8480000000000002e-05
,,1729521992.0,946529109.0,,,,,,,,-0.006462372252114258,0.0035545334239102844,0.04607460829450382,0.9989107735466274,0.097,0.119,-10.183,-0.001386,0.001133,-0.00012,-2.301e-05,-8.29e-06,2.8610000000000002e-05
,,1729521992.0,970981098.0,,,,,,,,-0.006462558358190552,0.0035541950500180943,0.04612691107711795,0.9989083597164943,0.088,0.097,-10.182,-0.000568,-0.00158,-0.001482,-2.312e-05,-8.12e-06,2.8420000000000002e-05
,,1729521992.0,998531919.0,,,,,,,,-0.00647136851369858,0.003553623097833047,0.04615309343398074,0.9989070953391576,0.117,0.137,-10.231,-0.000803,0.00246,-0.00108,-2.301e-05,-8.069999999999999e-06,2.8420000000000002e-05
,,1729521993.0,21136311.0,,,,,,,,-0.006462775459553276,0.003553800268161903,0.046187930830326865,0.9989055401200988,0.083,0.123,-10.229,0.000365,-0.001006,-0.001563,-2.317e-05,-8.17e-06,2.8410000000000004e-05
,,1729521993.0,46442977.0,,,,,,,,-0.0064629305171902155,0.0035535182730025597,0.046231516262824165,0.9989035238405427,0.074,0.125,-10.232,7.4e-05,-0.001643,-0.001242,-2.3230000000000003e-05,-8.22e-06,2.865e-05
,,1729521993.0,71167535.0,,,,,,,,-0.006454337490582389,0.003553696422240325,0.04626635353536291,0.9989019658103777,0.075,0.144,-10.157,0.000168,-0.001224,-0.001333,-2.2950000000000002e-05,-7.9e-06,2.854e-05
,,1729521993.0,97153415.0,,,,,,,,-0.0064454027241353,0.0035450456123489456,0.0463185717033703,0.9988996342729785,0.062,0.147,-10.181,-0.000609,-0.002117,-0.000578,-2.317e-05,-8.12e-06,2.8470000000000004e-05
,,1729521993.0,123404446.0,,,,,,,,-0.0064455573997948545,0.003544764375226518,0.046362156878052035,0.9988976122931443,0.076,0.126,-10.161,-0.000642,-0.002585,-0.000944,-2.3230000000000003e-05,-8.17e-06,2.8410000000000004e-05
,,1729521993.0,144956486.0,,,,,,,,-0.0064540553765941155,0.0035353048149774783,0.04641443668169198,0.9988951630959989,0.074,0.13,-10.148,-0.001678,-0.001642,-6.1e-05,-2.317e-05,-8.06e-06,2.8349999999999998e-05
,,1729521993.0,170048639.0,,,,,,,,-0.006471736123599376,0.003534042925896415,0.04648423429420417,0.9988918075218287,0.086,0.112,-10.164,-0.001619,-0.002553,-0.000322,-2.312e-05,-8.28e-06,2.86e-05
,,1729521993.0,198152309.0,,,,,,,,-0.006471484707909182,0.003525043562299091,0.046527765756969645,0.998889814227387,0.102,0.125,-10.183,-0.000346,-0.002292,-0.000213,-2.328e-05,-8.17e-06,2.865e-05
,,1729521993.0,223638853.0,,,,,,,,-0.0064633892390481805,0.0035337717520701464,0.0465888069084073,0.9988869906689144,0.121,0.152,-10.227,0.00041,0.001154,-2.4e-05,-2.328e-05,-8.17e-06,2.859e-05
,,1729521993.0,245039147.0,,,,,,,,-0.006471884569770893,0.0035243093729651633,0.046641085912117256,0.9988845293919101,0.084,0.118,-10.139,-0.000569,-0.002495,0.000322,-2.3330000000000002e-05,-8.17e-06,2.853e-05
,,1729521993.0,271409292.0,,,,,,,,-0.0064807859836790715,0.0035235630242426187,0.046693418070480164,0.998882029383622,0.11,0.128,-10.178,-0.001083,0.000953,0.000401,-2.3230000000000003e-05,-8.22e-06,2.8710000000000005e-05
,,1729521993.0,295408873.0,,,,,,,,-0.006480624293690193,0.0035143936899776525,0.046763099636222466,0.9988788029877141,0.079,0.093,-10.164,-0.000511,-0.001758,0.000111,-2.334e-05,-8.28e-06,2.8349999999999998e-05
,,1729521993.0,320355655.0,,,,,,,,-0.006472561069320674,0.003523066795381985,0.04683285711411045,0.998875556537494,0.089,0.069,-10.186,-0.000142,-0.000799,0.000928,-2.344e-05,-8.160000000000001e-06,2.84e-05
,,1729521993.0,348044886.0,,,,,,,,-0.006473092621555578,0.003531557697156073,0.04686777777815587,0.9988738852218941,0.091,0.1,-10.171,0.000985,0.000139,-0.000387,-2.328e-05,-8.28e-06,2.8770000000000004e-05
,,1729521993.0,370132063.0,,,,,,,,-0.006472929968522295,0.003522388971055672,0.046937458860805026,0.9988706467352264,0.076,0.132,-10.168,-0.000112,-0.001971,-0.000664,-2.339e-05,-8.11e-06,2.8760000000000002e-05
,,1729521993.0,396192921.0,,,,,,,,-0.006473493222412095,0.00353082332536821,0.04698109612402715,0.9988685618133796,0.131,0.133,-10.214,-0.000786,-0.00069,-0.000943,-2.3330000000000002e-05,-8.22e-06,2.853e-05
,,1729521993.0,421459951.0,,,,,,,,-0.006464110627052151,0.0035135176797202834,0.04702454257450724,0.9988666391781106,0.095,0.173,-10.186,-0.000284,-0.000876,-0.000672,-2.339e-05,-8.17e-06,2.8460000000000002e-05
,,1729521993.0,446097987.0,,,,,,,,-0.0064730726280111655,0.0035126554158780962,0.04709430716191706,0.998863297361366,0.113,0.127,-10.197,-0.000744,-0.000372,-0.000283,-2.3330000000000002e-05,-8.22e-06,2.8770000000000004e-05
1729521996.0,540650120.0,,,42.337743333333336,-71.08989666666666,10.9,327834.3763478021,4689391.817040406,19.0,T,,,,,,,,,,,,,
,,1729521993.0,474046368.0,,,,,,,,-0.006472784377889945,0.003503712728682681,0.047129120684055496,0.9988616886451599,0.09,0.108,-10.149,-0.000956,-0.000923,-0.000319,-2.328e-05,-8.34e-06,2.853e-05
,,1729521993.0,495290871.0,,,,,,,,-0.0064729678229865865,0.0035033738096825248,0.04718142089514468,0.9988592196009544,0.087,0.093,-10.182,-0.000509,-0.001078,7.2e-05,-2.334e-05,-8.44e-06,2.8770000000000004e-05
,,1729521993.0,520068818.0,,,,,,,,-0.006472708982124648,0.0034943746768633707,0.04722495094962656,0.9988571956950884,0.086,0.094,-10.165,-0.001245,-0.000725,-5.1e-05,-2.339e-05,-8.22e-06,2.864e-05
,,1729521993.0,545003097.0,,,,,,,,-0.006481669564096636,0.0034935100639028986,0.04729471471020141,0.9988538398122,0.086,0.096,-10.165,-0.000285,-0.000198,0.000531,-2.344e-05,-8.380000000000001e-06,2.8760000000000002e-05
,,1729521993.0,570049571.0,,,,,,,,-0.006490508136120317,0.0034928707801784573,0.04732961174073248,0.9988521317043476,0.096,0.104,-10.215,-0.001247,-0.001247,-0.001423,-2.328e-05,-8.28e-06,2.865e-05
,,1729521993.0,598368838.0,,,,,,,,-0.00649063005635697,0.0034926442165763194,0.04736447822876816,0.9988504789806953,0.089,0.129,-10.178,1.4e-05,-0.001162,-0.000561,-2.334e-05,-8.44e-06,2.8770000000000004e-05
,,1729521993.0,620016986.0,,,,,,,,-0.006482448587326295,0.0035015479064278167,0.04739936760598041,0.9988488459086914,0.103,0.183,-10.199,9.8e-05,0.00055,0.000313,-2.334e-05,-8.56e-06,2.859e-05
,,1729521993.0,645232420.0,,,,,,,,-0.006482157286937841,0.003492605018052592,0.04743418055473814,0.9988472264877126,0.057,0.188,-10.148,-0.001538,-0.001656,0.000386,-2.334e-05,-8.44e-06,2.8770000000000004e-05
,,1729521993.0,670429057.0,,,,,,,,-0.006482248720901986,0.003492435314374781,0.04746033029771965,0.9988459843214701,0.081,0.15,-10.193,-0.000756,0.000106,0.000443,-2.35e-05,-8.44e-06,2.864e-05
,,1729521993.0,695354458.0,,,,,,,,-0.006491117658215738,0.0034917379196137167,0.04750394360336424,0.998843855915416,0.107,0.096,-10.216,-0.000708,-0.00138,1.2e-05,-2.339e-05,-8.390000000000001e-06,2.8710000000000005e-05
,,1729521993.0,722814381.0,,,,,,,,-0.006491209069476228,0.0034915679813542315,0.04753009325808046,0.9988426119227825,0.103,0.041,-10.233,-0.000164,0.000568,0.000147,-2.339e-05,-8.44e-06,2.8710000000000005e-05
,,1729521993.0,746133455.0,,,,,,,,-0.00649918783418485,0.003473549924104843,0.04755616619112895,0.9988413818347848,0.08,0.081,-10.177,-0.00063,-0.001501,-0.000314,-2.339e-05,-8.33e-06,2.853e-05
,,1729521993.0,770764073.0,,,,,,,,-0.006507934677918401,0.0034730781258211834,0.04756491303486251,0.9988409100365012,0.105,0.151,-10.199,0.000308,0.000313,-0.001039,-2.339e-05,-8.500000000000002e-06,2.865e-05
,,1729521993.0,799181198.0,,,,,,,,-0.006508025600660868,0.0034729077472995455,0.04759106261243492,0.9988396644476926,0.083,0.184,-10.157,-0.00044,-0.004071,0.000107,-2.345e-05,-8.500000000000002e-06,2.865e-05
,,1729521993.0,820452334.0,,,,,,,,-0.006517217770860648,0.0034810952301171597,0.04760857967987995,0.9988387412337343,0.094,0.17,-10.174,0.000261,0.001387,0.000315,-2.328e-05,-8.390000000000001e-06,2.859e-05
,,1729521993.0,847138142.0,,,,,,,,-0.006517278526441357,0.003480981482678793,0.047626012697358854,0.9988379101551347,0.106,0.132,-10.175,-0.000545,-0.00016,-4.6e-05,-2.339e-05,-8.500000000000002e-06,2.883e-05
,,1729521993.0,871084377.0,,,,,,,,-0.006526055777646307,0.0034804519665502906,0.04764347607481732,0.9988370218597246,0.09,0.068,-10.211,-0.000958,0.002214,0.000597,-2.339e-05,-8.500000000000002e-06,2.8710000000000005e-05
,,1729521993.0,896858370.0,,,,,,,,-0.006525670725459733,0.003471678501970956,0.04765213876603513,0.9988366416691892,0.116,0.085,-10.203,0.000322,0.000313,-0.000595,-2.339e-05,-8.550000000000001e-06,2.883e-05
,,1729521993.0,921829324.0,,,,,,,,-0.0065248097305196685,0.0034543024132832998,0.04764331465001292,0.9988371284758981,0.093,0.123,-10.184,0.001117,-0.00101,-0.000823,-2.3400000000000003e-05,-8.61e-06,2.8710000000000005e-05
,,1729521993.0,947768234.0,,,,,,,,-0.00653349608746688,0.003453943662438884,0.04763462829306571,0.9988374872267425,0.076,0.155,-10.166,0.000209,-0.0018,-0.001704,-2.334e-05,-8.56e-06,2.8710000000000005e-05
,,1729521993.0,971757146.0,,,,,,,,-0.006533465945873559,0.003454000677816563,0.0476259117898298,0.9988379028792604,0.089,0.154,-10.178,-0.000371,-0.002896,-0.000181,-2.328e-05,-8.33e-06,2.8770000000000004e-05
,,1729521993.0,996043343.0,,,,,,,,-0.006533911360630559,0.003462660183612837,0.04763468218133757,0.9988374517609294,0.113,0.145,-10.212,-0.001266,0.000412,-0.000913,-2.345e-05,-8.550000000000001e-06,2.8770000000000004e-05
,,1729521994.0,23277041.0,,,,,,,,-0.0065252855201473735,0.0034629050441133853,0.047660801450616054,0.9988362613274614,0.118,0.116,-10.19,9.1e-05,0.000846,-0.000294,-2.35e-05,-8.61e-06,2.8760000000000002e-05
,,1729521994.0,47195936.0,,,,,,,,-0.006533556369160856,0.003453829630894431,0.0476520612886541,0.9988366556935093,0.07,0.092,-10.213,0.000281,0.001386,0.000228,-2.334e-05,-8.390000000000001e-06,2.8710000000000005e-05
,,1729521994.0,70456787.0,,,,,,,,-0.0065252855201473735,0.0034629050441133853,0.047660801450616054,0.9988362613274614,0.077,0.088,-10.146,-0.000759,-0.001724,-0.000609,-2.3290000000000002e-05,-8.61e-06,2.86e-05
,,1729521994.0,96366023.0,,,,,,,,-0.0065249303044454445,0.0034540746523531373,0.04767818061414601,0.9988354648019576,0.072,0.121,-10.205,-0.000553,0.00144,8.9e-05,-2.334e-05,-8.44e-06,2.889e-05
,,1729521994.0,121152055.0,,,,,,,,-0.006533646787970124,0.0034536585816050823,0.04767821075481821,0.9988354078231663,0.067,0.128,-10.177,-0.000358,-0.002574,-0.001968,-2.3290000000000002e-05,-8.62e-06,2.8480000000000002e-05
,,1729521994.0,145737161.0,,,,,,,,-0.006533261196521424,0.003444885064967911,0.04768687334623229,0.9988350271068228,0.103,0.154,-10.163,-0.001413,-0.001572,0.001085,-2.3290000000000002e-05,-8.61e-06,2.8960000000000004e-05
,,1729521994.0,171564209.0,,,,,,,,-0.006542037792553381,0.0034443547387871497,0.04770433635835739,0.998834137609725,0.088,0.144,-10.203,0.000481,-3.2e-05,0.000269,-2.334e-05,-8.44e-06,2.8770000000000004e-05
,,1729521994.0,197945773.0,,,,,,,,-0.006533351381162606,0.003444714023409229,0.04771302276974816,0.998833778325103,0.058,0.131,-10.194,-0.000334,-0.000401,-0.000187,-2.345e-05,-8.49e-06,2.895e-05
,,1729521994.0,221109892.0,,,,,,,,-0.006533351381162606,0.003444714023409229,0.04771302276974816,0.998833778325103,0.084,0.111,-10.198,-0.000346,0.000939,-0.000468,-2.3290000000000002e-05,-8.56e-06,2.8840000000000002e-05
,,1729521994.0,248390435.0,,,,,,,,-0.0065246349118579915,0.0034451303979497645,0.047712992707130635,0.9988338353013165,0.081,0.096,-10.156,-0.00073,-0.002686,3.3e-05,-2.3400000000000003e-05,-8.720000000000001e-06,2.883e-05
,,1729521994.0,274943335.0,,,,,,,,-0.0065246349118579915,0.0034451303979497645,0.047712992707130635,0.9988338353013165,0.084,0.152,-10.173,0.000143,0.000462,0.000569,-2.3290000000000002e-05,-8.56e-06,2.8840000000000002e-05
,,1729521994.0,297041848.0,,,,,,,,-0.006532905437427328,0.003436054544837951,0.04770425240581401,0.9988342299791857,0.095,0.15,-10.143,-0.000875,-0.001457,-0.000926,-2.339e-05,-8.390000000000001e-06,2.889e-05
,,1729521994.0,322893694.0,,,,,,,,-0.0065241889641813045,0.0034364708428429526,0.047704222418765034,0.9988342869515078,0.1,0.119,-10.192,-0.000676,0.0008,-0.000522,-2.345e-05,-8.61e-06,2.895e-05
,,1729521994.0,348802930.0,,,,,,,,-0.00651585830492836,0.0034456604959337504,0.04769552969351392,0.9988347247976275,0.085,0.129,-10.171,-0.000746,-0.001342,0.000163,-2.339e-05,-8.550000000000001e-06,2.9010000000000005e-05
,,1729521994.0,372955259.0,,,,,,,,-0.006516780579254654,0.0034629228819254717,0.04772178657883721,0.9988334049388413,0.092,0.124,-10.197,6e-06,-0.00118,-0.000424,-2.3230000000000003e-05,-8.56e-06,2.8960000000000004e-05
,,1729521994.0,395905864.0,,,,,,,,-0.00651633440092812,0.0034542632619617387,0.04771301637786788,0.9988338568147445,0.111,0.114,-10.227,-0.001332,-0.000512,-0.000586,-2.3290000000000002e-05,-8.56e-06,2.8780000000000002e-05
,,1729521994.0,422489230.0,,,,,,,,-0.006506816007470731,0.0034371898732281844,0.047721595375475594,0.9988335679211224,0.078,0.122,-10.154,-0.000551,-0.001507,0.000301,-2.3230000000000003e-05,-8.56e-06,2.8780000000000002e-05
,,1729521994.0,448076592.0,,,,,,,,-0.006515888373740534,0.0034456036342120433,0.04770424616901319,0.9988343085375788,0.099,0.131,-10.196,-0.000759,0.001522,-0.000603,-2.334e-05,-8.720000000000001e-06,2.8710000000000005e-05
1729521997.0,540915622.0,,,42.337743333333336,-71.08989666666666,10.9,327834.3763478021,4689391.817040406,19.0,T,,,,,,,,,,,,,
,,1729521994.0,470654853.0,,,,,,,,-0.006515472490438434,0.0034368871405862514,0.04770419242808316,0.9988343438477642,0.041,0.124,-10.166,-0.000729,-0.002211,-0.000409,-2.3290000000000002e-05,-8.730000000000001e-06,2.8720000000000003e-05
,,1729521994.0,497833662.0,,,,,,,,-0.006524158975067454,0.0034365277770013244,0.04769550594345413,0.9988347032113492,0.052,0.136,-10.221,-0.000906,0.000353,0.000151,-2.3290000000000002e-05,-8.56e-06,2.8840000000000002e-05
,,1729521994.0,524684096.0,,,,,,,,-0.006523743167642435,0.0034278112799542033,0.04769545212251797,0.9988347384486285,0.062,0.134,-10.168,0.000435,-0.000688,0.000556,-2.339e-05,-8.44e-06,2.883e-05
,,1729521994.0,547900270.0,,,,,,,,-0.006532429734915525,0.0034274520648188266,0.047686765555244884,0.9988350976637639,0.09,0.114,-10.174,-0.000262,0.000419,-0.000904,-2.3290000000000002e-05,-8.720000000000001e-06,2.8780000000000002e-05
,,1729521994.0,573525724.0,,,,,,,,-0.006531984169021704,0.0034187925667978247,0.047677995171611955,0.998835548935167,0.093,0.121,-10.166,0.000554,-0.00209,-0.000765,-2.334e-05,-8.61e-06,2.8770000000000004e-05
,,1729521994.0,595386010.0,,,,,,,,-0.006540670822068786,0.003418433575920136,0.04766930851856486,0.9988359079260448,0.092,0.143,-10.19,-0.000676,-0.000743,-0.001401,-2.3290000000000002e-05,-8.67e-06,2.9020000000000003e-05
,,1729521994.0,620640954.0,,,,,,,,-0.006541086401179391,0.003427150083170378,0.04766936249618551,0.9988358727589869,0.109,0.14,-10.21,-0.000647,-0.00021,-0.001787,-2.334e-05,-8.56e-06,2.8710000000000005e-05
,,1729521994.0,645711059.0,,,,,,,,-0.006523623510482023,0.003428038999461475,0.04766058618372887,0.9988364027254588,0.074,0.127,-10.173,-0.001004,-0.00081,0.000564,-2.334e-05,-8.67e-06,2.889e-05
,,1729521994.0,671103412.0,,,,,,,,-0.0065240090220456005,0.0034368124438674983,0.04765192351242966,0.9988367833695712,0.121,0.119,-10.197,-0.001155,0.000401,0.000422,-2.345e-05,-8.66e-06,2.883e-05
,,1729521994.0,699616145.0,,,,,,,,-0.006506100755714848,0.0034290411635862234,0.04763437685072097,0.9988377638394026,0.107,0.088,-10.156,0.000752,-0.001967,-0.001348,-2.3230000000000003e-05,-8.45e-06,2.8899999999999998e-05
,,1729521994.0,723920430.0,,,,,,,,-0.006496879418251445,0.003420910416791626,0.047608143796124866,0.9988391024454503,0.084,0.124,-10.203,-0.000489,-3e-06,-0.000621,-2.334e-05,-8.67e-06,2.865e-05
,,1729521994.0,745394159.0,,,,,,,,-0.006488192758940112,0.0034212692560585643,0.0476168304554362,0.9988387436061832,0.059,0.129,-10.196,-4e-06,-0.000973,0.000738,-2.3290000000000002e-05,-8.720000000000001e-06,2.8960000000000004e-05
,,1729521994.0,770839651.0,,,,,,,,-0.006479476246306965,0.0034216847911636918,0.04761680059741653,0.9988388001883133,0.081,0.148,-10.202,0.000406,0.000679,-0.000402,-2.334e-05,-8.61e-06,2.889e-05
,,1729521994.0,797949026.0,,,,,,,,-0.006479090904471441,0.0034129117180195408,0.04762546365816367,0.9988384196785791,0.079,0.108,-10.202,-0.000125,-0.001263,-0.000721,-2.3230000000000003e-05,-8.390000000000001e-06,2.8960000000000004e-05
,,1729521994.0,822495039.0,,,,,,,,-0.006479120687498015,0.0034128551771551775,0.047634180165909534,0.9988380040299718,0.082,0.138,-10.19,-0.000329,0.000304,0.001211,-2.3290000000000002e-05,-8.61e-06,2.8899999999999998e-05
,,1729521994.0,846945610.0,,,,,,,,-0.006479120687498015,0.0034128551771551775,0.047634180165909534,0.9988380040299718,0.086,0.137,-10.166,-0.000368,0.000438,-0.001164,-2.334e-05,-8.61e-06,2.883e-05
,,1729521994.0,870072928.0,,,,,,,,-0.006479120687498015,0.0034128551771551775,0.047634180165909534,0.9988380040299718,0.057,0.121,-10.208,0.001283,0.000104,-0.0014,-2.324e-05,-8.720000000000001e-06,2.9020000000000003e-05
,,1729521994.0,895393805.0,,,,,,,,-0.006470819459112845,0.003421987389424584,0.04763420375526347,0.9988380254728172,0.1,0.12,-10.199,-0.001078,-0.000181,-0.000436,-2.3400000000000003e-05,-8.61e-06,2.895e-05
,,1729521994.0,923428124.0,,,,,,,,-0.006479921306821177,0.0034303447755923925,0.04762557055517598,0.998838349475966,0.082,0.103,-10.178,-0.000931,0.000249,0.000783,-2.3290000000000002e-05,-8.500000000000002e-06,2.889e-05
,,1729521994.0,948834898.0,,,,,,,,-0.006480661442363537,0.0034479474966216906,0.0475995278963682,0.9988395254641121,0.11,0.137,-10.171,0.000666,-0.001527,-0.001164,-2.339e-05,-8.500000000000002e-06,2.907e-05
,,1729521994.0,974412216.0,,,,,,,,-0.006471469916717453,0.003439759290247931,0.04758201139397135,0.9988404478818658,0.103,0.145,-10.186,-5.1e-05,0.000313,-0.000645,-2.3230000000000003e-05,-8.61e-06,2.8899999999999998e-05
,,1729521994.0,996108126.0,,,,,,,,-0.006471469916717453,0.003439759290247931,0.04758201139397135,0.9988404478818658,0.084,0.141,-10.169,-0.000313,0.000451,4.3e-05,-2.3230000000000003e-05,-8.61e-06,2.8960000000000004e-05
,,1729521995.0,24328368.0,,,,,,,,-0.006471499934033583,0.0034397028158882096,0.04759072791941827,0.9988400326124509,0.054,0.128,-10.175,-0.001262,-0.000378,-0.000719,-2.3230000000000003e-05,-8.61e-06,2.9020000000000003e-05
,,1729521995.0,50866681.0,,,,,,,,-0.006463228402958955,0.0034487782645806824,0.04759946771108212,0.9988396384208601,0.11,0.121,-10.186,0.000151,0.001434,0.0003,-2.3400000000000003e-05,-8.66e-06,2.9010000000000005e-05
,,1729521995.0,72763768.0,,,,,,,,-0.006454896678488291,0.003457966518031196,0.047590774299350554,0.9988400747757463,0.095,0.087,-10.16,7.1e-05,-0.001598,0.000148,-2.3290000000000002e-05,-8.67e-06,2.8780000000000002e-05
,,1729521995.0,95124139.0,,,,,,,,-0.006454836324603994,0.0034580791767044278,0.04757334124409724,0.9988409052393192,0.115,0.128,-10.195,-0.00166,0.00114,0.000376,-2.313e-05,-8.62e-06,2.8910000000000003e-05
,,1729521995.0,121104310.0,,,,,,,,-0.006463047816491719,0.0034491166737008376,0.04754716852468808,0.9988421293539725,0.097,0.136,-10.204,-0.00031,-0.002717,-0.001396,-2.324e-05,-8.720000000000001e-06,2.8960000000000004e-05
,,1729521995.0,151020859.0,,,,,,,,-0.006462543228851524,0.003440569302218713,0.04752096559159816,0.9988434090722799,0.086,0.125,-10.174,-0.00159,-0.000413,-0.001783,-2.334e-05,-8.500000000000002e-06,2.889e-05
,,1729521995.0,170494203.0,,,,,,,,-0.006462513203974216,0.0034406256984164034,0.047512249036688735,0.9988438237329035,0.051,0.11,-10.187,-0.000931,4.8e-05,0.000169,-2.3290000000000002e-05,-8.550000000000001e-06,2.9080000000000003e-05
,,1729521995.0,195350586.0,,,,,,,,-0.00647161387401635,0.00344898412695728,0.04750361586965145,0.9988441466022947,0.105,0.1,-10.134,0.000128,-0.001955,-0.000891,-2.3230000000000003e-05,-8.56e-06,2.9199999999999998e-05
,,1729521995.0,220738689.0,,,,,,,,-0.00647164397183436,0.003448927651340944,0.04751233242737878,0.9988437320170099,0.134,0.097,-10.186,9.1e-05,0.002719,0.000464,-2.339e-05,-8.550000000000001e-06,2.889e-05
,,1729521995.0,246649883.0,,,,,,,,-0.006479916298292794,0.0034398530007799994,0.04750359252215689,0.9988441253737186,0.105,0.125,-10.139,-0.001434,-0.001206,-0.000385,-2.3230000000000003e-05,-8.67e-06,2.8960000000000004e-05
,,1729521995.0,271719280.0,,,,,,,,-0.006479976334066492,0.0034397399043814268,0.04752102563362277,0.99884329612749,0.071,0.138,-10.195,0.000123,0.00113,-0.000683,-2.334e-05,-8.500000000000002e-06,2.883e-05
,,1729521995.0,295186475.0,,,,,,,,-0.006488662871912582,0.0034393818294663854,0.047512339095776686,0.9988436542024051,0.037,0.128,-10.15,6.1e-05,-0.00297,-0.000956,-2.3230000000000003e-05,-8.500000000000002e-06,2.9020000000000003e-05
,,1729521995.0,320120921.0,,,,,,,,-0.006488188783254196,0.0034307784952706125,0.04749485245432097,0.9988445185090478,0.107,0.119,-10.17,-0.001019,-0.000837,-0.001135,-2.334e-05,-8.61e-06,2.9010000000000005e-05
,,1729521995.0,345453884.0,,,,,,,,-0.006488542810885172,0.0034396083244332817,0.04747747284588063,0.9988453120873795,0.064,0.124,-10.176,0.001006,-0.001595,-0.00114,-2.334e-05,-8.61e-06,2.889e-05
,,1729521995.0,370156103.0,,,,,,,,-0.006488158843816819,0.003430835115268357,0.047486135889730864,0.9988449329417911,0.089,0.124,-10.183,-0.000733,0.000641,-2.6e-05,-2.3230000000000003e-05,-8.67e-06,2.8660000000000003e-05
,,1729521995.0,395195158.0,,,,,,,,-0.006479442277171532,0.0034312495098478774,0.0474861059482383,0.9988449895236251,0.108,0.121,-10.163,0.000947,-0.001366,-0.000646,-2.3290000000000002e-05,-8.56e-06,2.8840000000000002e-05
,,1729521995.0,420418552.0,,,,,,,,-0.006479442277171532,0.0034312495098478774,0.0474861059482383,0.9988449895236251,0.084,0.091,-10.175,-0.00092,-0.001143,-0.001272,-2.324e-05,-8.730000000000001e-06,2.8660000000000003e-05
1729521998.0,539293350.0,,,42.337743333333336,-71.08989666666666,10.9,327834.3763478021,4689391.817040406,19.0,T,,,,,,,,,,,,,
,,1729521995.0,449864565.0,,,,,,,,-0.006488039081126323,0.0034310615926465603,0.04745126959521435,0.9988465899121004,0.097,0.13,-10.232,-3.4e-05,0.001351,-0.000489,-2.3290000000000002e-05,-8.67e-06,2.8960000000000004e-05
,,1729521995.0,471451656.0,,,,,,,,-0.006478908820420659,0.0034227590819706426,0.04745118619892185,0.9988466816228999,0.077,0.116,-10.165,-6e-05,-0.003069,-0.001406,-2.3400000000000003e-05,-8.78e-06,2.8770000000000004e-05
,,1729521995.0,495856966.0,,,,,,,,-0.006479262608485521,0.0034315887679485283,0.04743380648181657,0.998847474521122,0.125,0.131,-10.204,-0.000595,0.001538,-0.000414,-2.3290000000000002e-05,-8.61e-06,2.9020000000000003e-05
,,1729521995.0,521098240.0,,,,,,,,-0.006470486118928436,0.0034321156376775045,0.04741634334838364,0.9988483587487655,0.117,0.131,-10.155,-0.001404,-0.001635,0.000116,-2.324e-05,-8.78e-06,2.8840000000000002e-05
,,1729521995.0,553839010.0,,,,,,,,-0.006480029464162933,0.003449135081955688,0.04741648019470656,0.9988482317605989,0.125,0.164,-10.195,0.000455,0.00048,0.001321,-2.3290000000000002e-05,-8.840000000000002e-06,2.8720000000000003e-05
,,1729521995.0,578682974.0,,,,,,,,-0.006488685866572183,0.0034488345444325893,0.04739907709567745,0.9988490025957317,0.098,0.122,-10.171,-0.001285,-0.000523,-0.001147,-2.3290000000000002e-05,-8.720000000000001e-06,2.8960000000000004e-05
,,1729521995.0,601066018.0,,,,,,,,-0.006498168418391661,0.003465967565856762,0.04738178117014077,0.9988497022521373,0.106,0.133,-10.22,-0.000991,0.0005,0.00043,-2.339e-05,-8.44e-06,2.8770000000000004e-05
,,1729521995.0,621932884.0,,,,,,,,-0.006498107924856143,0.0034660809797631095,0.04736434794688813,0.9988505290680906,0.105,0.114,-10.186,-0.000471,-0.001072,-0.000876,-2.35e-05,-8.33e-06,2.87e-05
,,1729521995.0,645708617.0,,,,,,,,-0.006488595574071321,0.003449004416649422,0.0473729272736987,0.9988502431583681,0.061,0.141,-10.18,-0.000629,-0.000605,-0.000661,-2.3290000000000002e-05,-8.500000000000002e-06,2.889e-05
,,1729521995.0,673366382.0,,,,,,,,-0.006480261776441518,0.003458191007047552,0.0473642340036865,0.9988506777589488,0.08,0.115,-10.235,0.000293,0.000854,-0.001814,-2.3290000000000002e-05,-8.720000000000001e-06,2.8899999999999998e-05
,,1729521995.0,695683659.0,,,,,,,,-0.006479788653317585,0.0034495874649490914,0.04734674731772433,0.99885153962126,0.032,0.103,-10.127,-0.001308,-0.003605,0.000848,-2.3290000000000002e-05,-8.67e-06,2.8899999999999998e-05
,,1729521995.0,720881005.0,,,,,,,,-0.006488475177152294,0.003449230909261318,0.04733806079388962,0.9988518961769479,0.093,0.129,-10.194,-0.000988,0.000967,-0.000899,-2.3290000000000002e-05,-8.61e-06,2.8780000000000002e-05
,,1729521995.0,747796247.0,,,,,,,,-0.00648008069710089,0.0034585303080201537,0.04731193423959652,0.998853156375238,0.083,0.122,-10.161,-0.000554,-0.001748,-0.001081,-2.318e-05,-8.56e-06,2.8840000000000002e-05
,,1729521995.0,770970618.0,,,,,,,,-0.0064804628999720745,0.003467303518475174,0.04730327104326034,0.9988535337853696,0.117,0.1,-10.184,-0.000803,0.001526,-0.000382,-2.3290000000000002e-05,-8.78e-06,2.8780000000000002e-05
,,1729521995.0,797037435.0,,,,,,,,-0.006488445076687217,0.0034492875317576176,0.047329344164923196,0.9988523092414255,0.112,0.114,-10.17,-0.000786,-0.001673,0.000343,-2.339e-05,-8.44e-06,2.883e-05
,,1729521995.0,820996507.0,,,,,,,,-0.006488505277123245,0.003449174286502344,0.04734677741925105,0.9988514830364033,0.089,0.147,-10.223,0.000475,-0.000435,7e-06,-2.334e-05,-8.44e-06,2.889e-05
,,1729521995.0,848417961.0,,,,,,,,-0.006488887866094393,0.0034579475558724395,0.047338114315951633,0.998851860821199,0.069,0.125,-10.162,0.000398,-0.000549,0.000512,-2.3290000000000002e-05,-8.67e-06,2.8780000000000002e-05
,,1729521995.0,870611749.0,,,,,,,,-0.006489300554542336,0.0034666642022202223,0.04733816783440864,0.9988518253893834,0.098,0.128,-10.163,-3e-05,0.001272,-0.001035,-2.3290000000000002e-05,-8.840000000000002e-06,2.8840000000000002e-05
,,1729521995.0,898965400.0,,,,,,,,-0.006498872956268187,0.0034836276763784662,0.047347021886820176,0.9988512844798066,0.113,0.13,-10.189,0.000836,0.001292,-0.001384,-2.3290000000000002e-05,-8.720000000000001e-06,2.8899999999999998e-05
,,1729521995.0,922639648.0,,,,,,,,-0.006490156334194865,0.0034840408569572837,0.0473469914846309,0.9988513411551386,0.077,0.122,-10.192,-0.000134,0.000625,-0.000402,-2.3290000000000002e-05,-8.56e-06,2.865e-05
,,1729521995.0,945414542.0,,,,,,,,-0.006498842555634295,0.0034836843896111965,0.04733830526319148,0.9988516976224847,0.082,0.111,-10.242,0.001034,-0.000574,-0.001041,-2.3400000000000003e-05,-8.66e-06,2.889e-05
,,1729521995.0,973708386.0,,,,,,,,-0.006490447173036298,0.00349298406038356,0.04731217847508585,0.9988529576097723,0.096,0.095,-10.153,-0.000438,-0.002265,-0.001885,-2.3230000000000003e-05,-8.61e-06,2.8960000000000004e-05
,,1729521995.0,999188054.0,,,,,,,,-0.006490890189162224,0.0035016440729032142,0.04732094861437166,0.998852508959944,0.085,0.097,-10.185,0.000128,0.00088,0.000956,-2.3230000000000003e-05,-8.500000000000002e-06,2.8720000000000003e-05
,,1729521996.0,23075315.0,,,,,,,,-0.006490095525222132,0.0034841541310236283,0.04732955823277932,0.998852167363897,0.086,0.116,-10.167,0.000439,-0.001989,-0.000986,-2.334e-05,-8.61e-06,2.859e-05
,,1729521996.0,46793367.0,,,,,,,,-0.006473013899195059,0.0034938098131421878,0.047312117503807226,0.9988530707373113,0.106,0.139,-10.183,-0.000532,-0.000725,-7e-06,-2.3290000000000002e-05,-8.500000000000002e-06,2.9010000000000005e-05
,,1729521996.0,71123700.0,,,,,,,,-0.006472983409706247,0.003493866300711687,0.04730340086459181,0.9988534835753912,0.103,0.13,-10.218,0.00054,0.000185,-0.000372,-2.313e-05,-8.62e-06,2.8720000000000003e-05
,,1729521996.0,101856749.0,,,,,,,,-0.006473365226483304,0.0035026394522339748,0.04729473757523573,0.9988538606108514,0.074,0.134,-10.149,-0.000242,0.000208,0.000545,-2.3230000000000003e-05,-8.67e-06,2.8899999999999998e-05
,,1729521996.0,121017721.0,,,,,,,,-0.006472952919724488,0.003493922788015113,0.04729468422177403,0.9988538963374038,0.087,0.107,-10.152,0.000731,-0.000698,-0.000487,-2.3230000000000003e-05,-8.45e-06,2.8780000000000002e-05
,,1729521996.0,148333899.0,,,,,,,,-0.006481226846349923,0.00348484995939063,0.047285944630833444,0.9988542881520289,0.088,0.122,-10.143,-0.001533,-0.001395,-0.001286,-2.3230000000000003e-05,-8.62e-06,2.8720000000000003e-05
,,1729521996.0,174399925.0,,,,,,,,-0.006481226846349923,0.00348484995939063,0.047285944630833444,0.9988542881520289,0.134,0.101,-10.211,-0.000595,0.001515,-0.000868,-2.3290000000000002e-05,-8.78e-06,2.8899999999999998e-05
,,1729521996.0,197771388.0,,,,,,,,-0.006472479783164941,0.0034853190901439966,0.04727719756764846,0.9988547572827823,0.091,0.136,-10.137,-0.000626,-0.001386,0.000275,-2.3290000000000002e-05,-8.78e-06,2.8780000000000002e-05
,,1729521996.0,222898590.0,,,,,,,,-0.006481578101995814,0.003493679752418052,0.04726856476162039,0.9988550776426337,0.091,0.109,-10.168,-9.2e-05,-0.000258,-0.00021,-2.3290000000000002e-05,-8.500000000000002e-06,2.8710000000000005e-05
,,1729521996.0,246032951.0,,,,,,,,-0.006481639077223298,0.003493566627007334,0.04728599806427523,0.9988542524984116,0.079,0.131,-10.179,-0.001536,-0.002121,-0.000627,-2.318e-05,-8.390000000000001e-06,2.86e-05
,,1729521996.0,274110240.0,,,,,,,,-0.006481226846349923,0.00348484995939063,0.047285944630833444,0.9988542881520289,0.128,0.116,-10.178,-0.000947,0.000572,0.00066,-2.3230000000000003e-05,-8.67e-06,2.8780000000000002e-05
,,1729521996.0,297973620.0,,,,,,,,-0.006481700050476365,0.0034934535005324164,0.04730343135252591,0.9988534270499212,0.085,0.122,-10.161,-0.000569,-0.001787,-0.001697,-2.3230000000000003e-05,-8.45e-06,2.8780000000000002e-05
,,1729521996.0,322030466.0,,,,,,,,-0.006481378895444527,0.0034845671592032947,0.047329527825996524,0.9988522239626314,0.094,0.133,-10.173,0.000477,0.00069,-0.000394,-2.3290000000000002e-05,-8.500000000000002e-06,2.883e-05
,,1729521996.0,345403513.0,,,,,,,,-0.006480875283967061,0.0034760201794258572,0.04730332448328455,0.9988534982829538,0.066,0.136,-10.133,-0.00118,-0.003146,-0.000407,-2.313e-05,-8.68e-06,2.8610000000000002e-05
,,1729521996.0,371092067.0,,,,,,,,-0.006480935950976961,0.003475907066284318,0.04732075775836905,0.9988526725320604,0.086,0.133,-10.178,-0.00123,0.001241,0.000338,-2.318e-05,-8.67e-06,2.8720000000000003e-05
,,1729521996.0,396416154.0,,,,,,,,-0.006480875283967061,0.0034760201794258572,0.04730332448328455,0.9988534982829538,0.068,0.099,-10.186,4.3e-05,-0.00242,-0.001235,-2.318e-05,-8.500000000000002e-06,2.8840000000000002e-05
,,1729521996.0,422548154.0,,,,,,,,-0.006489622255014265,0.0034755507474083787,0.04731207145433176,0.9988530288509363,0.079,0.107,-10.194,-0.001051,0.001386,0.000506,-2.324e-05,-8.78e-06,2.8780000000000002e-05
,,1729521996.0,445497885.0,,,,,,,,-0.006490095525222132,0.0034841541310236283,0.04732955823277932,0.998852167363897,0.092,0.125,-10.221,8.7e-05,-0.000926,0.000693,-2.318e-05,-8.62e-06,2.8660000000000003e-05
1729521999.0,540590906.0,,,42.337743333333336,-71.08989666666666,10.9,327834.3763478021,4689391.817040406,19.0,T,,,,,,,,,,,,,
,,1729521996.0,470536523.0,,,,,,,,-0.0064983692178670035,0.0034750811627275273,0.04732081841718449,0.9988525592662556,0.06,0.104,-10.178,-0.000785,-0.001595,-0.000127,-2.3290000000000002e-05,-8.56e-06,2.8899999999999998e-05
,,1729521996.0,495787091.0,,,,,,,,-0.006498842555634295,0.0034836843896111965,0.04733830526319148,0.9988516976224847,0.082,0.135,-10.213,-0.002079,0.00033,-0.000606,-2.334e-05,-8.500000000000002e-06,2.889e-05
,,1729521996.0,520922795.0,,,,,,,,-0.006507498385274235,0.0034833848626374102,0.047320902405189,0.998852466929037,0.103,0.144,-10.134,-0.001485,-0.00339,-0.000844,-2.334e-05,-8.67e-06,2.883e-05
,,1729521996.0,547370002.0,,,,,,,,-0.0065071161725226085,0.003474611425383446,0.04732956537184011,0.9988520895289114,0.103,0.123,-10.201,-0.000367,0.001432,0.000176,-2.318e-05,-8.62e-06,2.8899999999999998e-05
,,1729521996.0,571544211.0,,,,,,,,-0.006507146493979636,0.003474554639950133,0.047338281998889176,0.9988516764625034,0.094,0.123,-10.204,-0.000428,-0.000778,-0.000959,-2.3230000000000003e-05,-8.34e-06,2.859e-05
,,1729521996.0,595667491.0,,,,,,,,-0.006498429868485306,0.0034749677442593857,0.047338251675877414,0.9988517332100356,0.095,0.124,-10.168,4.9e-05,0.001272,-0.000264,-2.3290000000000002e-05,-8.720000000000001e-06,2.8780000000000002e-05
,,1729521996.0,621824665.0,,,,,,,,-0.006507176814941115,0.0034744978542522184,0.047346998622333214,0.9988512633200284,0.111,0.138,-10.154,-0.000595,-0.000971,-0.001073,-2.3290000000000002e-05,-8.61e-06,2.8780000000000002e-05
,,1729521996.0,647699725.0,,,,,,,,-0.006498460193052133,0.003474911034628362,0.04734696829981667,0.9988513200678251,0.099,0.114,-10.183,-0.000364,0.001096,-0.000344,-2.3290000000000002e-05,-8.61e-06,2.8840000000000002e-05
,,1729521996.0,670680547.0,,,,,,,,-0.006507207135407045,0.0034744410682897046,0.047355715242171595,0.9988508501014866,0.106,0.134,-10.19,-0.000404,-0.002052,-3.9e-05,-2.3290000000000002e-05,-8.67e-06,2.8660000000000003e-05
,,1729521996.0,696692517.0,,,,,,,,-0.006498047429341192,0.0034661943926136284,0.04734691470920748,0.9988513555797767,0.088,0.106,-10.186,0.00027,-8.7e-05,-0.001139,-2.318e-05,-8.78e-06,2.8840000000000002e-05
,,1729521996.0,720825757.0,,,,,,,,-0.006489682913829699,0.0034754374816034672,0.0473295047212218,0.9988522029473795,0.11,0.148,-10.196,-0.000149,0.000108,-0.00024,-2.318e-05,-8.45e-06,2.8660000000000003e-05
,,1729521996.0,748052913.0,,,,,,,,-0.006480553671545089,0.0034671338591649803,0.047329420951411384,0.998852295046328,0.022,0.11,-10.183,0.000189,-0.002126,-0.000659,-2.334e-05,-8.61e-06,2.8770000000000004e-05
,,1729521996.0,773693996.0,,,,,,,,-0.006472692677116193,0.003484923702350951,0.04733821404432486,0.9988518674194838,0.092,0.119,-10.204,-0.0007,-0.000113,-0.000151,-2.3230000000000003e-05,-8.500000000000002e-06,2.8720000000000003e-05
,,1729521996.0,797942266.0,,,,,,,,-0.006463945634409228,0.003485393214766501,0.04732946700161789,0.9988523369318992,0.08,0.115,-10.186,0.000523,-0.00296,-0.001662,-2.3290000000000002e-05,-8.67e-06,2.8780000000000002e-05
,,1729521996.0,820970392.0,,,,,,,,-0.006464358246240836,0.0034941098653191774,0.0473295202813697,0.9988523012831519,0.101,0.121,-10.169,5.6e-05,0.002046,-9.7e-05,-2.324e-05,-8.730000000000001e-06,2.8840000000000002e-05
,,1729521996.0,846346533.0,,,,,,,,-0.006472662265173339,0.003484980187117596,0.047329497415609385,0.9988522804852988,0.106,0.105,-10.143,-0.001146,-0.000743,0.000816,-2.334e-05,-8.67e-06,2.865e-05
,,1729521996.0,870648442.0,,,,,,,,-0.006473135852220804,0.003493583860203546,0.04734698402463199,0.9988514186243227,0.101,0.138,-10.183,-0.000157,0.000785,0.000702,-2.313e-05,-8.62e-06,2.854e-05
,,1729521996.0,897035716.0,,,,,,,,-0.006482678000176984,0.0035106039637281218,0.04734712136181007,0.998851290555559,0.076,0.141,-10.187,-4.5e-05,-0.000266,-0.001151,-2.328e-05,-8.45e-06,2.8770000000000004e-05
,,1729521996.0,921656790.0,,,,,,,,-0.006491363989368592,0.0035102474299858405,0.04733843537261847,0.9988516470893013,0.097,0.119,-10.157,-0.000547,-0.001764,-0.000343,-2.334e-05,-8.56e-06,2.865e-05
,,1729521996.0,949373820.0,,,,,,,,-0.006491486516164227,0.0035100208364982014,0.04737330184373252,0.9988499940576465,0.107,0.125,-10.184,-0.001194,0.000572,3.2e-05,-2.334e-05,-8.500000000000002e-06,2.865e-05
,,1729521996.0,970512046.0,,,,,,,,-0.006499346670906383,0.003492230883396544,0.04736450870603524,0.9988504223012294,0.08,0.133,-10.191,-0.001099,-0.001822,-0.001182,-2.3230000000000003e-05,-8.56e-06,2.8720000000000003e-05
,,1729521996.0,995283825.0,,,,,,,,-0.006508032812856471,0.003491874343383986,0.04735582256408516,0.998850778841242,0.117,0.133,-10.204,-7.6e-05,0.00185,-0.000253,-2.3230000000000003e-05,-8.45e-06,2.854e-05
,,1729521997.0,27657001.0,,,,,,,,-0.006499316195195329,0.003492287600762887,0.04735579208992981,0.9988508355965088,0.094,0.131,-10.204,-0.000753,-0.000806,-0.000159,-2.3230000000000003e-05,-8.500000000000002e-06,2.8660000000000003e-05
,,1729521997.0,47916795.0,,,,,,,,-0.006499759585266597,0.0035009475174100097,0.04736456228520359,0.998850386560142,0.086,0.113,-10.143,-0.000508,0.001922,-0.001105,-2.334e-05,-8.56e-06,2.8770000000000004e-05
,,1729521997.0,72702328.0,,,,,,,,-0.006499729033488546,0.0035010042383793786,0.047355845669410056,0.998850799855889,0.094,0.098,-10.183,-0.000762,0.000344,-0.000401,-2.339e-05,-8.56e-06,2.859e-05
,,1729521997.0,96358363.0,,,,,,,,-0.006499759585266597,0.0035009475174100097,0.04736456228520359,0.998850386560142,0.065,0.101,-10.185,-0.001907,-0.000336,0.00068,-2.3230000000000003e-05,-8.67e-06,2.8660000000000003e-05
,,1729521997.0,120932133.0,,,,,,,,-0.006508445650837777,0.0035005909805325766,0.047355876219632415,0.9988507430970195,0.089,0.134,-10.226,-0.001102,0.001302,-0.000353,-2.318e-05,-8.67e-06,2.8720000000000003e-05
,,1729521997.0,149122617.0,,,,,,,,-0.006508032812856471,0.003491874343383986,0.04735582256408516,0.998850778841242,0.085,0.122,-10.175,0.000378,-0.000112,0.000102,-2.334e-05,-8.61e-06,2.8770000000000004e-05
,,1729521997.0,193953014.0,,,,,,,,-0.006499729033488546,0.0035010042383793786,0.047355845669410056,0.998850799855889,0.067,0.132,-10.157,-0.000687,-0.000573,-0.000569,-2.3290000000000002e-05,-8.67e-06,2.8780000000000002e-05
,,1729521997.0,210827944.0,,,,,,,,-0.0064905995770392355,0.0034927008578758347,0.047355761612168104,0.9988508922757088,0.106,0.124,-10.183,-0.000345,-0.00082,-0.000314,-2.3290000000000002e-05,-8.500000000000002e-06,2.853e-05
,,1729521997.0,221386430.0,,,,,,,,-0.006499729033488546,0.0035010042383793786,0.047355845669410056,0.998850799855889,0.114,0.139,-10.217,-0.000653,0.001033,0.000303,-2.3230000000000003e-05,-8.56e-06,2.854e-05
,,1729521997.0,247805295.0,,,,,,,,-0.006499729033488546,0.0035010042383793786,0.047355845669410056,0.998850799855889,0.085,0.112,-10.183,-0.00137,-0.000955,0.000249,-2.3230000000000003e-05,-8.390000000000001e-06,2.8660000000000003e-05
,,1729521997.0,272074196.0,,,,,,,,-0.0065002031264818575,0.003509607426317198,0.047373332472638884,0.9988499373707066,0.114,0.132,-10.164,-0.000576,0.000517,-0.000436,-2.3230000000000003e-05,-8.45e-06,2.8660000000000003e-05
,,1729521997.0,295159044.0,,,,,,,,-0.006491073525919484,0.0035013042058878326,0.04737324834455071,0.9988500298716643,0.069,0.12,-10.142,0.000593,-0.003066,0.000403,-2.334e-05,-8.56e-06,2.8470000000000004e-05
,,1729521997.0,322602629.0,,,,,,,,-0.006491073525919484,0.0035013042058878326,0.04737324834455071,0.9988500298716643,0.075,0.133,-10.146,-0.000566,8.6e-05,-0.001761,-2.334e-05,-8.62e-06,2.8230000000000002e-05
,,1729521997.0,345029976.0,,,,,,,,-0.00649113463421734,0.0035011909147495426,0.04739068155908937,0.9988492029003697,0.085,0.142,-10.162,0.000197,-0.001406,0.000379,-2.3230000000000003e-05,-8.390000000000001e-06,2.8410000000000004e-05
,,1729521997.0,370180102.0,,,,,,,,-0.006491517146627255,0.003509964187458022,0.047382018452493485,0.9988495806095657,0.092,0.116,-10.151,-0.000415,0.00116,-0.000347,-2.334e-05,-8.67e-06,2.853e-05
,,1729521997.0,395411498.0,,,,,,,,-0.006483182895415819,0.003519150877221472,0.04737332463072565,0.998850014782039,0.067,0.122,-10.182,-0.000139,-0.000314,-0.001196,-2.3230000000000003e-05,-8.56e-06,2.8780000000000002e-05
,,1729521997.0,422183328.0,,,,,,,,-0.006465306040468445,0.003511317486009743,0.04736449332151861,0.9988505770332774,0.09,0.117,-10.196,-0.000453,0.000104,1.4e-05,-2.334e-05,-8.28e-06,2.853e-05
,,1729521997.0,445853159.0,,,,,,,,-0.006465811107153339,0.0035198648480213343,0.04739069641898813,0.9988493008112392,0.118,0.103,-10.187,-0.000394,0.001292,0.00112,-2.3230000000000003e-05,-8.56e-06,2.8660000000000003e-05
1729522000.0,540904670.0,,,42.337745,-71.08989666666666,10.6,327834.3808963307,4689392.002111063,19.0,T,,,,,,,,,,,,,
,,1729521997.0,470023201.0,,,,,,,,-0.00646539796432963,0.0035111482234901205,0.04739064315224109,0.9988493366914413,0.065,0.137,-10.136,-0.000989,-0.002621,-0.001525,-2.3290000000000002e-05,-8.56e-06,2.865e-05
,,1729521997.0,495125064.0,,,,,,,,-0.0064479954012101465,0.003511919076471717,0.047399298467933164,0.9988490357829125,0.099,0.128,-10.182,-0.000946,0.000242,0.000146,-2.334e-05,-8.61e-06,2.8710000000000005e-05
,,1729521997.0,521365634.0,,,,,,,,-0.0064479954012101465,0.003511919076471717,0.047399298467933164,0.9988490357829125,0.083,0.11,-10.168,-0.000574,-0.003838,-0.000358,-2.318e-05,-8.56e-06,2.8480000000000002e-05
,,1729521997.0,546661921.0,,,,,,,,-0.006439217496011318,0.0035124450993302163,0.04738183460624822,0.9988499191354072,0.074,0.115,-10.205,-0.001047,0.000905,0.000133,-2.334e-05,-8.500000000000002e-06,2.859e-05
,,1729521997.0,573408704.0,,,,,,,,-0.006448408620726911,0.003520635698325595,0.04739935158223335,0.9988489999094575,0.076,0.122,-10.184,-0.0,-0.000615,0.000489,-2.3400000000000003e-05,-8.61e-06,2.8710000000000005e-05
,,1729521997.0,594992711.0,,,,,,,,-0.0064571559418574115,0.003520165711635623,0.04740809890336386,0.9988485299227676,0.09,0.101,-10.204,-0.001713,0.001334,-0.001337,-2.3290000000000002e-05,-8.500000000000002e-06,2.8710000000000005e-05
,,1729521997.0,621611836.0,,,,,,,,-0.006457186660852482,0.0035201093621858347,0.04741681549934651,0.9988481161710252,0.099,0.118,-10.183,-0.00049,-0.00077,-0.000621,-2.3230000000000003e-05,-8.67e-06,2.8660000000000003e-05
,,1729521997.0,645958756.0,,,,,,,,-0.006448531510167688,0.0035204106042568553,0.047434217960906286,0.9988473447514274,0.102,0.149,-10.168,-0.000251,0.000279,0.000643,-2.3230000000000003e-05,-8.51e-06,2.8480000000000002e-05
,,1729521997.0,672486733.0,,,,,,,,-0.006449389429528388,0.003537787536895445,0.04744304076117613,0.9988468587920091,0.104,0.144,-10.218,-0.000636,0.000299,-7.4e-05,-2.334e-05,-8.500000000000002e-06,2.865e-05
,,1729521997.0,695436338.0,,,,,,,,-0.006440259246895431,0.0035294849516532157,0.04744295685690709,0.998846951059812,0.066,0.128,-10.178,-0.001006,-0.002443,-0.000451,-2.3230000000000003e-05,-8.500000000000002e-06,2.86e-05
,,1729521997.0,724507005.0,,,,,,,,-0.00644070372246649,0.0035381453497866223,0.04745172646823803,0.9988465009791179,0.119,0.128,-10.2,9.3e-05,0.000714,0.000803,-2.3400000000000003e-05,-8.67e-06,2.859e-05
,,1729521997.0,745053248.0,,,,,,,,-0.006449482046379339,0.0035376186910626504,0.04746919049452835,0.998845616393807,0.08,0.121,-10.201,-9.6e-05,-0.000831,0.000205,-2.3290000000000002e-05,-8.67e-06,2.854e-05
,,1729521997.0,770150484.0,,,,,,,,-0.006449895872956728,0.003546335283240898,0.04746924359547902,0.9988455802884447,0.107,0.13,-10.192,-0.001524,0.001352,-0.001087,-2.3290000000000002e-05,-8.67e-06,2.8720000000000003e-05
,,1729521997.0,798636502.0,,,,,,,,-0.006449895872956728,0.003546335283240898,0.04746924359547902,0.9988455802884447,0.088,0.135,-10.175,-0.00102,-0.004464,-0.000925,-2.339e-05,-8.44e-06,2.8710000000000005e-05
,,1729521997.0,820675250.0,,,,,,,,-0.006458643388511155,0.0035458646736476287,0.04747799111103346,0.9988451096788514,0.104,0.131,-10.186,-0.001949,0.000983,0.000324,-2.3400000000000003e-05,-8.720000000000001e-06,2.853e-05
,,1729521997.0,848266873.0,,,,,,,,-0.006458674331771921,0.0035458083112164425,0.04748670767716618,0.9988446953171847,0.096,0.142,-10.17,-0.000175,-0.002192,2.7e-05,-2.3290000000000002e-05,-8.500000000000002e-06,2.8470000000000004e-05
,,1729521997.0,872403698.0,,,,,,,,-0.00645911932851096,0.0035544685291227923,0.047495477412137554,0.9988442446930195,0.103,0.113,-10.204,-0.000403,0.002823,-0.000846,-2.339e-05,-8.56e-06,2.8470000000000004e-05
,,1729521997.0,895935035.0,,,,,,,,-0.006458705274540829,0.003545751948515227,0.0474954242396826,0.9988442808794515,0.112,0.089,-10.175,-0.001693,-0.001307,-4.5e-05,-2.3290000000000002e-05,-8.730000000000001e-06,2.8660000000000003e-05
,,1729521997.0,923746756.0,,,,,,,,-0.006449636397974436,0.003537337275953282,0.04751277331114017,0.9988435442088087,0.068,0.091,-10.152,-0.000604,-0.000806,-0.000698,-2.339e-05,-8.33e-06,2.865e-05
,,1729521997.0,945978887.0,,,,,,,,-0.006458414681970048,0.0035368099285911117,0.04753023727876035,0.9988426584800779,0.077,0.138,-10.168,-0.000701,-0.002219,-0.001066,-2.339e-05,-8.56e-06,2.853e-05
,,1729521997.0,970931754.0,,,,,,,,-0.006458445546213266,0.0035367535681561113,0.04753895382350036,0.9988422436624774,0.059,0.14,-10.139,-0.00087,-0.001617,0.000285,-2.339e-05,-8.56e-06,2.8349999999999998e-05
,,1729521997.0,997555880.0,,,,,,,,-0.006458476409964645,0.003536697207451771,0.04754767036462006,0.9988418287688107,0.11,0.132,-10.19,0.000872,0.001033,-3.7e-05,-2.345e-05,-8.44e-06,2.87e-05
,,1729521998.0,24690678.0,,,,,,,,-0.0064580311109272434,0.0035280370050840143,0.04753890064538378,0.9988422796990971,0.066,0.107,-10.172,0.000991,-0.00214,-0.001674,-2.328e-05,-8.45e-06,2.853e-05
,,1729521998.0,48126533.0,,,,,,,,-0.006467100367158197,0.0035364515851209503,0.04752155159357221,0.9988430168235479,0.105,0.112,-10.204,0.000191,0.00172,-0.000709,-2.3400000000000003e-05,-8.67e-06,2.853e-05
,,1729521998.0,70056169.0,,,,,,,,-0.006466686084319449,0.0035277350152813245,0.04752149833876026,0.9988430528628549,0.091,0.138,-10.153,0.000554,-0.003561,-0.001384,-2.3400000000000003e-05,-8.67e-06,2.859e-05
,,1729521998.0,97669256.0,,,,,,,,-0.006475341069725199,0.003527433328400367,0.04750409601601176,0.9988438256473561,0.076,0.167,-10.208,0.000535,-0.000906,-0.000315,-2.339e-05,-8.500000000000002e-06,2.8710000000000005e-05
,,1729521998.0,120582186.0,,,,,,,,-0.00647492693884074,0.003518716751527913,0.04750404268088669,0.9988438616132812,0.083,0.125,-10.171,-0.000208,1.8e-05,0.000367,-2.334e-05,-8.56e-06,2.8770000000000004e-05
,,1729521998.0,148617922.0,,,,,,,,-0.0064657962498543275,0.0035104147247647637,0.04750395870980526,0.9988439539658897,0.079,0.117,-10.173,0.000184,-0.000351,-0.000995,-2.3230000000000003e-05,-8.67e-06,2.8720000000000003e-05
,,1729521998.0,170519427.0,,,,,,,,-0.0064657962498543275,0.0035104147247647637,0.04750395870980526,0.9988439539658897,0.103,0.111,-10.209,-0.000228,0.002073,-0.000844,-2.334e-05,-8.67e-06,2.853e-05
,,1729521998.0,195135958.0,,,,,,,,-0.006474007009983727,0.003501453087286864,0.04747778631048237,0.9988451766247702,0.08,0.101,-10.168,-0.000959,-0.001026,0.000455,-2.3290000000000002e-05,-8.67e-06,2.854e-05
,,1729521998.0,220162885.0,,,,,,,,-0.006483168109767023,0.0035096987769069497,0.04748658684989257,0.9988446699137477,0.112,0.143,-10.202,-0.000817,0.002072,-0.000148,-2.345e-05,-8.61e-06,2.859e-05
,,1729521998.0,246356318.0,,,,,,,,-0.006482754130341991,0.0035009821927384282,0.047486533430840625,0.9988447057302218,0.067,0.1,-10.176,0.000554,-0.003766,-0.000593,-2.345e-05,-8.61e-06,2.865e-05
,,1729521998.0,270937131.0,,,,,,,,-0.006474098675592575,0.003501283596979772,0.04750393599978364,0.9988439333169326,0.091,0.106,-10.183,-0.00044,0.00127,-0.001401,-2.3290000000000002e-05,-8.67e-06,2.8780000000000002e-05
,,1729521998.0,295755130.0,,,,,,,,-0.006474007009983727,0.003501453087286864,0.04747778631048237,0.9988451766247702,0.079,0.128,-10.177,-0.000517,-0.001968,-0.000718,-2.35e-05,-8.61e-06,2.8460000000000002e-05
,,1729521998.0,322803989.0,,,,,,,,-0.006483106852980173,0.003509811929001862,0.04746915371445485,0.9988454985589058,0.104,0.145,-10.171,-0.000572,0.000251,0.001079,-2.3400000000000003e-05,-8.720000000000001e-06,2.859e-05
,,1729521998.0,345499196.0,,,,,,,,-0.006491792798548142,0.003509454334068472,0.04746046776888688,0.9988458561538393,0.097,0.123,-10.194,-0.000368,-0.001403,-0.000415,-2.334e-05,-8.56e-06,2.865e-05
,,1729521998.0,370615105.0,,,,,,,,-0.006491317947246959,0.003500851034935669,0.04744298111606794,0.998846720160886,0.102,0.119,-10.17,0.000449,-0.00074,0.000599,-2.3400000000000003e-05,-8.720000000000001e-06,2.859e-05
,,1729521998.0,396696259.0,,,,,,,,-0.006482601365005122,0.00350126505291608,0.04744295056357286,0.9988467767702882,0.083,0.11,-10.21,0.000717,-0.001726,-1.8e-05,-2.345e-05,-8.78e-06,2.8410000000000004e-05
,,1729521998.0,420077058.0,,,,,,,,-0.006482157286937841,0.003492605018052592,0.04743418055473814,0.9988472264877126,0.087,0.104,-10.201,0.00041,0.000833,-1e-06,-2.339e-05,-8.500000000000002e-06,2.889e-05
,,1729521998.0,445454324.0,,,,,,,,-0.00648298433348189,0.0035100382299842023,0.04743428740020491,0.998847154936425,0.092,0.125,-10.159,0.000351,-0.001043,-0.000697,-2.339e-05,-8.56e-06,2.859e-05
1729522001.0,541500881.0,,,42.337743333333336,-71.089895,10.3,327834.5136535027,4689391.81366581,19.0,T,,,,,,,,,,,,,
,,1729521998.0,472562824.0,,,,,,,,-0.006465551160917542,0.0035108661139430218,0.04743422613125628,0.9988472679337138,0.051,0.135,-10.118,0.000766,-0.000827,-0.000928,-2.3290000000000002e-05,-8.78e-06,2.8720000000000003e-05
,,1729521998.0,495450539.0,,,,,,,,-0.006473440700277819,0.003493018959233931,0.04743415007420346,0.998847283017173,0.076,0.148,-10.174,-0.001513,-0.000312,0.000149,-2.3350000000000002e-05,-8.890000000000001e-06,2.8780000000000002e-05
,,1729521998.0,520073988.0,,,,,,,,-0.006481713360016749,0.0034839449754397985,0.0474254105380557,0.9988476760520713,0.093,0.125,-10.186,-0.000431,-0.001797,-0.002723,-2.3400000000000003e-05,-8.78e-06,2.8770000000000004e-05
,,1729521998.0,545360356.0,,,,,,,,-0.006481682956614554,0.0034840015389267904,0.04741669394591349,0.9988480898788195,0.094,0.1,-10.162,-0.000754,0.000973,-0.000707,-2.334e-05,-8.720000000000001e-06,2.8770000000000004e-05
,,1729521998.0,570138595.0,,,,,,,,-0.006481178599274316,0.0034754546031302894,0.04739049071450672,0.99884936648581,0.06,0.117,-10.213,0.000932,-0.00159,-0.001233,-2.339e-05,-8.550000000000001e-06,2.8710000000000005e-05
,,1729521998.0,597180411.0,,,,,,,,-0.006481148269964618,0.0034755111619509367,0.047381774107614016,0.9988497800078252,0.089,0.151,-10.192,-0.000771,-0.000421,-0.00094,-2.3290000000000002e-05,-8.78e-06,2.86e-05
,,1729521998.0,623390181.0,,,,,,,,-0.006472753499523129,0.003484810732021487,0.04735564729094011,0.9988510410596529,0.096,0.133,-10.189,-0.001048,-0.000868,-0.00114,-2.334e-05,-8.61e-06,2.853e-05
,,1729521998.0,646053714.0,,,,,,,,-0.006472814319958353,0.003484697760630489,0.047373080523130016,0.9988502143955547,0.101,0.137,-10.188,0.000582,-0.000729,0.000107,-2.3290000000000002e-05,-8.56e-06,2.865e-05
,,1729521998.0,670118896.0,,,,,,,,-0.00648185247497082,0.0034931706796894665,0.04734701451009968,0.9988513620975223,0.128,0.125,-10.221,-0.00099,0.000544,-0.001303,-2.3290000000000002e-05,-8.67e-06,2.86e-05
,,1729521998.0,695704674.0,,,,,,,,-0.006473044388190924,0.0034937533253066202,0.04732083413941961,0.9988526578231647,0.097,0.136,-10.144,0.000304,-0.001169,-0.000971,-2.3290000000000002e-05,-8.61e-06,2.8899999999999998e-05
,,1729521998.0,722067567.0,,,,,,,,-0.006490447173036298,0.00349298406038356,0.04731217847508585,0.9988529576097723,0.08,0.122,-10.161,-0.001781,-3.7e-05,-0.002225,-2.3290000000000002e-05,-8.730000000000001e-06,2.8720000000000003e-05
,,1729521998.0,746813255.0,,,,,,,,-0.006489882678248847,0.0034845505818976055,0.0472685417377965,0.9988550566984415,0.071,0.138,-10.153,-0.000892,-0.001436,-0.000492,-2.3290000000000002e-05,-8.720000000000001e-06,2.8780000000000002e-05
,,1729521998.0,771429911.0,,,,,,,,-0.006490264271921698,0.003493323894614587,0.04725987859169452,0.9988554335004373,0.106,0.115,-10.217,-0.000373,0.000904,-0.000494,-2.334e-05,-8.78e-06,2.8660000000000003e-05
,,1729521998.0,795791543.0,,,,,,,,-0.006489821860379778,0.0034846638511876757,0.04725110842110839,0.9988558815379931,0.09,0.113,-10.161,-0.000718,-0.000681,0.000688,-2.3290000000000002e-05,-8.730000000000001e-06,2.8660000000000003e-05
,,1729521998.0,821183272.0,,,,,,,,-0.006489730629869468,0.0034848337531324784,0.04722495841909006,0.9988571182268163,0.088,0.113,-10.194,-0.000293,0.001049,-0.000534,-2.3290000000000002e-05,-8.61e-06,2.8660000000000003e-05
,,1729521998.0,847883001.0,,,,,,,,-0.00648092271114298,0.003485415539860775,0.047198777970512966,0.9988584108257871,0.11,0.146,-10.182,0.000174,-0.000719,-0.000541,-2.339e-05,-8.550000000000001e-06,2.8710000000000005e-05
,,1729521998.0,873778316.0,,,,,,,,-0.006480389876818664,0.003476925046436446,0.04716385776431558,0.9988600933364257,0.057,0.122,-10.233,-0.001049,-0.000892,0.000351,-2.3400000000000003e-05,-8.720000000000001e-06,2.883e-05
,,1729521998.0,896176031.0,,,,,,,,-0.006471171200174487,0.003468789325750139,0.04713762393705,0.9988614197442409,0.081,0.115,-10.188,0.000373,-0.001051,-0.000687,-2.334e-05,-8.78e-06,2.8780000000000002e-05
,,1729521998.0,920629436.0,,,,,,,,-0.006471582139196421,0.0034775060554229306,0.04713767730689218,0.9988613842542724,0.083,0.121,-10.212,0.000426,0.000527,-0.001513,-2.312e-05,-8.56e-06,2.86e-05
,,1729521998.0,949779665.0,,,,,,,,-0.006479766837022426,0.0034686041608937117,0.04710278733832289,0.9988630080405788,0.105,0.132,-10.174,-0.001174,-2.7e-05,0.000292,-2.3230000000000003e-05,-8.67e-06,2.8720000000000003e-05
,,1729521998.0,971133239.0,,,,,,,,-0.006479676026957271,0.0034687737996041217,0.047076637149783974,0.9988642408463625,0.087,0.132,-10.192,-0.000169,-0.001179,-0.000826,-2.3290000000000002e-05,-8.61e-06,2.8660000000000003e-05
,,1729521998.0,995676459.0,,,,,,,,-0.006479676026957271,0.0034687737996041217,0.047076637149783974,0.9988642408463625,0.093,0.123,-10.189,-0.001252,0.000238,-0.000786,-2.313e-05,-8.730000000000001e-06,2.879e-05
,,1729521999.0,20990501.0,,,,,,,,-0.006487861586793071,0.0034598726954219164,0.04704174692352094,0.9988658623555745,0.08,0.12,-10.167,-0.000677,-0.004161,-0.000693,-2.334e-05,-8.66e-06,2.9680000000000004e-05
,,1729521999.0,45484959.0,,,,,,,,-0.006487331012130012,0.0034513823794215187,0.04700682636491733,0.9988675391517681,0.096,0.153,-10.193,-0.00012,0.001376,0.00065,-2.324e-05,-8.78e-06,2.8840000000000002e-05
,,1729521999.0,70515429.0,,,,,,,,-0.006495957427091407,0.0034511422322950408,0.04698070617647343,0.9988687127954092,0.092,0.115,-10.163,-0.001074,-0.00098,-0.0008,-2.318e-05,-8.840000000000002e-06,2.885e-05
,,1729521999.0,99681203.0,,,,,,,,-0.006487090044375912,0.003451835272153655,0.04693709214102322,0.9988708184131496,0.102,0.103,-10.141,0.000272,0.000517,8.1e-05,-2.3290000000000002e-05,-8.720000000000001e-06,2.8780000000000002e-05
,,1729521999.0,122352238.0,,,,,,,,-0.006495367602861741,0.0034427655401610443,0.046928351852395765,0.9988712065914989,0.107,0.12,-10.188,-0.00199,-0.000838,0.000157,-2.324e-05,-8.730000000000001e-06,2.8720000000000003e-05
,,1729521999.0,145340770.0,,,,,,,,-0.006503585389472644,0.003433809462815319,0.04690217779600944,0.998872413297938,0.102,0.109,-10.143,-0.001259,-0.002285,-0.00059,-2.3290000000000002e-05,-8.730000000000001e-06,2.8660000000000003e-05
,,1729521999.0,173954070.0,,,,,,,,-0.006512651003783146,0.0034422306566686584,0.046884827914740676,0.9988731397612084,0.068,0.104,-10.208,-0.000494,-0.000105,-0.000855,-2.3230000000000003e-05,-8.67e-06,2.8899999999999998e-05
,,1729521999.0,197443897.0,,,,,,,,-0.006512530843298292,0.0034424579889775838,0.04684996063598676,0.9988747757418924,0.094,0.118,-10.121,-0.00023,-0.002857,-0.00147,-2.318e-05,-8.730000000000001e-06,2.8720000000000003e-05
,,1729521999.0,222148325.0,,,,,,,,-0.00651287903664917,0.0034512885067925123,0.046832580746923674,0.9988755580125485,0.117,0.104,-10.197,-0.000763,0.000766,-0.000198,-2.3290000000000002e-05,-8.840000000000002e-06,2.8840000000000002e-05
,,1729521999.0,247098232.0,,,,,,,,-0.006512380631533198,0.00344274214846515,0.046806376457273195,0.9988768190062022,0.09,0.139,-10.188,-0.001009,-0.000829,-0.000182,-2.3290000000000002e-05,-8.840000000000002e-06,2.8720000000000003e-05
,,1729521999.0,270196792.0,,,,,,,,-0.00651313633530794,0.003460289552241147,0.046789050303792566,0.9988775651815198,0.111,0.139,-10.208,-0.000105,0.001006,-0.000513,-2.313e-05,-8.79e-06,2.855e-05
,,1729521999.0,297566067.0,,,,,,,,-0.006521792798915481,0.0034599950679030083,0.046771646790264305,0.9988783247770194,0.083,0.123,-10.178,-0.001214,0.001118,0.000564,-2.334e-05,-8.61e-06,2.883e-05
,,1729521999.0,321534391.0,,,,,,,,-0.006522079456838487,0.0034689396106989674,0.04673683317464726,0.9988799213931279,0.118,0.114,-10.233,-0.001277,0.002618,0.001414,-2.313e-05,-8.730000000000001e-06,2.849e-05
,,1729521999.0,345468706.0,,,,,,,,-0.006521641821942148,0.0034602796315029317,0.046728062456769415,0.9988803646242399,0.063,0.128,-10.144,-0.000861,-0.003266,-0.000443,-2.324e-05,-8.730000000000001e-06,2.8780000000000002e-05
,,1729521999.0,370319838.0,,,,,,,,-0.006530705520133165,0.003468702729415851,0.046710712815363535,0.9988810876651258,0.11,0.142,-10.23,-0.001121,0.003489,-0.000984,-2.3230000000000003e-05,-8.61e-06,2.8899999999999998e-05
,,1729521999.0,395556902.0,,,,,,,,-0.0065302379210022896,0.0034600998025129926,0.04669322512276065,0.998881938183731,0.088,0.147,-10.138,0.000504,-0.004392,-0.000701,-2.324e-05,-8.78e-06,2.8840000000000002e-05
,,1729521999.0,422471519.0,,,,,,,,-0.006521430433320188,0.0034606780094750583,0.04666704424043626,0.9988832172154457,0.113,0.124,-10.21,0.00054,0.002796,-0.000659,-2.318e-05,-8.720000000000001e-06,2.9140000000000002e-05
,,1729521999.0,445733621.0,,,,,,,,-0.006529620017485742,0.0034517817717899016,0.04663215288298103,0.9988848239824878,0.102,0.121,-10.161,-0.000575,0.000162,-0.000431,-2.318e-05,-8.78e-06,2.8660000000000003e-05
1729522002.0,541899291.0,,,42.33774,-71.08989166666667,10.1,327834.77916786476,4689391.436775311,19.0,T,,,,,,,,,,,,,
,,1729521999.0,473903725.0,,,,,,,,-0.006521279426548251,0.00346096255726315,0.046623459693568035,0.9988852524985142,0.105,0.148,-10.212,-7.8e-05,0.001384,-0.000511,-2.3290000000000002e-05,-8.61e-06,2.8660000000000003e-05
,,1729521999.0,495411212.0,,,,,,,,-0.006520812722400017,0.0034523594296219664,0.0466059719977185,0.9988861014099435,0.057,0.11,-10.208,-0.000134,0.000947,-0.000336,-2.318e-05,-8.840000000000002e-06,2.873e-05
,,1729521999.0,522374092.0,,,,,,,,-0.006512726684361081,0.003470541044149276,0.04655374780012002,0.9988885264641688,0.072,0.091,-10.207,0.000861,0.001612,-0.00128,-2.324e-05,-8.78e-06,2.8720000000000003e-05
,,1729521999.0,545568134.0,,,,,,,,-0.006513507927014714,0.0034880318173266082,0.046545138390464424,0.9988888616561598,0.081,0.136,-10.174,0.000169,0.001469,-0.002904,-2.3230000000000003e-05,-8.61e-06,2.8840000000000002e-05
,,1729521999.0,570387425.0,,,,,,,,-0.006496388222783536,0.0034977312290182987,0.046518980250515554,0.9988901577714941,0.083,0.145,-10.127,0.002037,-0.002457,-0.000907,-2.324e-05,-8.730000000000001e-06,2.8660000000000003e-05
,,1729521999.0,595051760.0,,,,,,,,-0.006488795600205764,0.0035244580028987826,0.04649295941686235,0.9988913246455324,0.106,0.174,-10.197,0.000634,0.002956,-0.000827,-2.3230000000000003e-05,-8.61e-06,2.8780000000000002e-05
,,1729521999.0,620068351.0,,,,,,,,-0.0064542404758742,0.0035349668765822305,0.04646673864647899,0.9988927314725146,0.082,0.1,-10.153,0.001256,-0.001014,-0.001104,-2.313e-05,-8.730000000000001e-06,2.873e-05
,,1729521999.0,646065401.0,,,,,,,,-0.006437492631977475,0.003553436594052037,0.04643191510451316,0.9988943933353078,0.107,0.107,-10.197,0.001661,0.003918,0.000592,-2.318e-05,-8.62e-06,2.8660000000000003e-05
,,1729521999.0,670145753.0,,,,,,,,-0.006420432316866755,0.0035630200306271433,0.04642318898448868,0.9988948745797209,0.079,0.106,-10.152,0.00088,-0.002703,-7.1e-05,-2.318e-05,-8.78e-06,2.8720000000000003e-05
,,1729521999.0,695045814.0,,,,,,,,-0.006395868693822171,0.003599159290577507,0.04641458936448823,0.9988953022265039,0.106,0.119,-10.206,0.001631,0.002457,0.000137,-2.318e-05,-8.67e-06,2.8720000000000003e-05
,,1729521999.0,720315053.0,,,,,,,,-0.006378340431778598,0.003600136363230404,0.04638837550355766,0.9988966284904778,0.112,0.104,-10.152,0.000687,-0.002068,0.000522,-2.318e-05,-8.45e-06,2.8660000000000003e-05
,,1729521999.0,745266252.0,,,,,,,,-0.00636171518389878,0.0036183800679883394,0.046388417374903304,0.9988966666472835,0.122,0.098,-10.235,0.000945,0.005227,-0.001761,-2.3230000000000003e-05,-8.67e-06,2.8960000000000004e-05
,,1729521999.0,772555340.0,,,,,,,,-0.006335873531300183,0.0036284774253639,0.046362223679981905,0.9988980103462096,0.059,0.126,-10.149,0.001395,-0.00139,-0.001066,-2.334e-05,-8.720000000000001e-06,2.8770000000000004e-05
,,1729521999.0,795054497.0,,,,,,,,-0.006310467117728536,0.003647235423671592,0.04634479838346095,0.9988989114726858,0.083,0.109,-10.156,0.002257,0.001119,-0.001303,-2.334e-05,-8.500000000000002e-06,2.883e-05
,,1729521999.0,821593768.0,,,,,,,,-0.006267254017470878,0.0036580293448414186,0.04633597366264477,0.9988995534552648,0.101,0.125,-10.154,0.00241,0.003349,-0.00083,-2.334e-05,-8.61e-06,2.8770000000000004e-05
,,1729521999.0,849905200.0,,,,,,,,-0.006225591529086027,0.003703799436551415,0.0463099184327588,0.9989008536059012,0.107,0.093,-10.204,0.003103,0.003087,-0.001752,-2.324e-05,-8.730000000000001e-06,2.8840000000000002e-05
,,1729521999.0,873125541.0,,,,,,,,-0.006174370039041616,0.003732590969944356,0.04627500812079204,0.9989026822181892,0.094,0.048,-10.246,0.005039,0.007831,-0.00119,-2.334e-05,-8.61e-06,2.895e-05
,,1729521999.0,896853470.0,,,,,,,,-0.006097801481972106,0.003780023709894347,0.04624009623939492,0.9989045909082661,0.079,0.104,-10.134,0.005144,-0.001169,-0.001505,-2.3230000000000003e-05,-8.56e-06,2.8780000000000002e-05
,,1729521999.0,925038245.0,,,,,,,,-0.006038663807784443,0.0038266446844955507,0.04620524385632167,0.9989063853885674,0.089,0.129,-10.229,0.002673,0.003681,-0.000248,-2.318e-05,-8.79e-06,2.86e-05
,,1729521999.0,949179654.0,,,,,,,,-0.006004533870465732,0.003845796595823954,0.046187774205499924,0.9989073254989591,0.056,0.091,-10.174,0.002574,-0.002931,-0.000289,-2.334e-05,-8.56e-06,2.8770000000000004e-05
,,1729521999.0,973897461.0,,,,,,,,-0.005979154105785976,0.003864492228081079,0.04617905409159522,0.9989078087487372,0.109,0.091,-10.26,0.000277,0.00489,0.000986,-2.318e-05,-8.840000000000002e-06,2.873e-05
,,1729521999.0,997165231.0,,,,,,,,-0.0059607804122414594,0.0038480720057709862,0.04614402074727565,0.9989096009089061,0.053,0.129,-10.176,0.001321,-0.002529,-0.000646,-2.318e-05,-8.67e-06,2.8960000000000004e-05
,,1729522000.0,23129480.0,,,,,,,,-0.005943647424366223,0.003857750126514062,0.04611785071712627,0.9989108742347784,0.081,0.122,-10.154,0.002039,-0.002188,0.000365,-2.3290000000000002e-05,-8.78e-06,2.8840000000000002e-05
,,1729522000.0,50667757.0,,,,,,,,-0.0059356667187673035,0.003875690500254486,0.04610047969545932,0.9989116540793779,0.08,0.126,-10.17,0.000358,0.002046,-0.001039,-2.312e-05,-8.51e-06,2.8840000000000002e-05
,,1729522000.0,73399223.0,,,,,,,,-0.005926547682361379,0.003867375634294658,0.046100397481287435,0.9989117442448754,0.022,0.055,-10.129,-0.000789,-0.003105,-0.001527,-2.313e-05,-8.730000000000001e-06,2.8970000000000002e-05
,,1729522000.0,95163609.0,,,,,,,,-0.005926915744374846,0.0038761445249303286,0.04609172872106686,0.9989121081040537,0.101,0.081,-10.193,0.00114,0.002326,-0.000432,-2.334e-05,-8.78e-06,2.8899999999999998e-05
,,1729522000.0,120114517.0,,,,,,,,-0.00591736129016547,0.0038591640449265113,0.04608288110477193,0.9989126387013628,0.062,0.12,-10.159,0.000508,-0.000269,-0.000541,-2.318e-05,-8.78e-06,2.8660000000000003e-05
,,1729522000.0,145363001.0,,,,,,,,-0.005900628935825637,0.003877557175406073,0.0460567585841183,0.9989138712207563,0.069,0.109,-10.18,0.00146,-0.002455,-0.000411,-2.3230000000000003e-05,-8.61e-06,2.8840000000000002e-05
,,1729522000.0,173695938.0,,,,,,,,-0.005900962614370796,0.0038863773541115993,0.04603937240236845,0.9989146364430153,0.075,0.128,-10.24,-0.000381,0.001066,-0.000953,-2.318e-05,-8.62e-06,2.8840000000000002e-05
,,1729522000.0,197696853.0,,,,,,,,-0.005892945935872065,0.003904367789320181,0.04601328310630434,0.9989158157112848,0.083,0.084,-10.205,-0.001632,-0.00082,-0.002512,-2.3230000000000003e-05,-8.61e-06,2.9080000000000003e-05
,,1729522000.0,221547063.0,,,,,,,,-0.006028552016811818,0.004002898373259969,0.046023101334820765,0.9989141642347048,0.294,-0.109,-9.879,-0.025511,0.007627,0.002418,-2.3290000000000002e-05,-8.67e-06,2.8780000000000002e-05
,,1729522000.0,246967799.0,,,,,,,,-0.006416982488587665,0.003897373124272792,0.04606772927138406,0.9989101046331695,0.022,0.331,-10.276,-0.008523,-0.025358,0.000375,-2.334e-05,-8.720000000000001e-06,2.865e-05
,,1729522000.0,273867829.0,,,,,,,,-0.006488692979289157,0.003937799363548572,0.0460595502783333,0.9989098600112779,0.106,0.242,-10.095,-0.011454,-0.004006,0.001232,-2.3400000000000003e-05,-8.720000000000001e-06,2.883e-05
,,1729522000.0,295728990.0,,,,,,,,-0.0069325652737045945,0.0038996840055899023,0.04608733536211296,0.9989057460654646,0.143,0.071,-10.166,-0.052516,0.00289,0.003192,-2.3230000000000003e-05,-8.67e-06,2.8899999999999998e-05
,,1729522000.0,324760022.0,,,,,,,,-0.0077924080580465665,0.003789993404987431,0.04610760409081535,0.9988988953701231,0.113,0.068,-10.33,-0.077584,0.003225,0.000738,-2.3290000000000002e-05,-8.56e-06,2.8840000000000002e-05
,,1729522000.0,347724215.0,,,,,,,,-0.008808407009148292,0.0036554373574569036,0.04614558168687542,0.998889200579557,0.036,0.114,-10.16,-0.081514,-0.00644,0.000277,-2.3290000000000002e-05,-8.720000000000001e-06,2.8780000000000002e-05
,,1729522000.0,370435259.0,,,,,,,,-0.009610797439148984,0.0036270211848643055,0.04615729907258717,0.9988813648438096,0.086,0.354,-10.314,-0.048452,0.000197,-0.000918,-2.334e-05,-8.44e-06,2.865e-05
,,1729522000.0,395116765.0,,,,,,,,-0.010281561903153547,0.003587377754393488,0.04615092255136041,0.9988751236032145,0.078,-0.006,-9.933,-0.064172,-0.007868,-0.007696,-2.3400000000000003e-05,-8.720000000000001e-06,2.883e-05
,,1729522000.0,420304608.0,,,,,,,,-0.01111154166075593,0.0035930877680284403,0.04611948208713314,0.9988676672784175,0.117,-0.057,-9.974,-0.067654,-0.00518,-0.010793,-2.345e-05,-8.720000000000001e-06,2.8770000000000004e-05
,,1729522000.0,445477697.0,,,,,,,,-0.012034402185426497,0.003534041377495881,0.04603541568323132,0.9988610635210753,-0.027,0.222,-10.339,-0.083017,0.00096,-0.011362,-2.345e-05,-8.67e-06,2.859e-05
1729522003.0,539785018.0,,,42.337735,-71.08988666666667,9.9,327835.1774394654,4689390.871439587,19.0,T,,,,,,,,,,,,,
,,1729522000.0,472795417.0,,,,,,,,-0.012845021384654733,0.0034967909765310622,0.04602955205187613,0.9988513694321081,0.262,1.161,-10.61,-0.112268,0.008122,0.003284,-2.35e-05,-8.390000000000001e-06,2.852e-05
,,1729522000.0,495152997.0,,,,,,,,-0.013367601425155673,0.003271455837537585,0.04605494622278702,0.9988441053223759,0.141,0.135,-9.739,-0.012545,-0.040907,0.000596,-2.345e-05,-8.61e-06,2.889e-05
,,1729522000.0,520123993.0,,,,,,,,-0.013787426896401828,0.003277351219299642,0.04612639602909056,0.9988350821922153,0.109,0.229,-10.122,-0.025686,0.006719,2.2e-05,-2.35e-05,-8.550000000000001e-06,2.888e-05
,,1729522000.0,545121704.0,,,,,,,,-0.01395839247695557,0.0031897557807388627,0.04620434694936726,0.9988293883644498,-0.119,0.243,-10.546,-0.027023,0.006984,-0.004178,-2.3290000000000002e-05,-8.56e-06,2.865e-05
,,1729522000.0,570164135.0,,,,,,,,-0.014070719593688902,0.0031573823490030715,0.046274080594175294,0.998824686945603,0.104,0.248,-10.174,0.002264,-0.000372,-0.0021,-2.339e-05,-8.500000000000002e-06,2.865e-05
,,1729522000.0,598239465.0,,,,,,,,-0.014077235309940064,0.0031036971699522154,0.046343120313745025,0.998821562497272,0.059,0.466,-10.234,0.000674,-0.008142,0.000389,-2.351e-05,-8.720000000000001e-06,2.8770000000000004e-05
,,1729522000.0,619916121.0,,,,,,,,-0.014024318742157711,0.003087834172379114,0.04640373351638122,0.9988195418991775,0.131,0.295,-10.233,0.001013,-0.007009,-4.6e-05,-2.356e-05,-8.720000000000001e-06,2.864e-05
,,1729522000.0,644982349.0,,,,,,,,-0.0139527538273765,0.003046639458949453,0.04646393841032717,0.9988178718245089,0.206,0.285,-10.268,0.007171,0.004487,0.001197,-2.3610000000000003e-05,-8.77e-06,2.8760000000000002e-05
,,1729522000.0,670111678.0,,,,,,,,-0.013784899145261481,0.003001203013172169,0.046523742983602435,0.9988175562508022,0.17,0.293,-10.253,0.016364,-0.005304,0.002996,-2.345e-05,-8.61e-06,2.889e-05
,,1729522000.0,698112989.0,,,,,,,,-0.013522427997917702,0.002986171562331789,0.04660105756671051,0.9988175850244656,0.15,0.267,-10.166,0.021807,-0.00331,0.001485,-2.351e-05,-8.83e-06,2.889e-05
,,1729522000.0,724191309.0,,,,,,,,-0.013303154515057581,0.00296031178747661,0.04668711564222942,0.9988165877012048,0.108,0.195,-10.146,0.010487,-0.000671,0.003528,-2.345e-05,-8.77e-06,2.889e-05
,,1729522000.0,744988365.0,,,,,,,,-0.013241810995352392,0.0029541007024098237,0.046712971034540786,0.9988162123572732,0.073,0.188,-10.213,0.001088,0.000698,-0.002322,-2.3400000000000003e-05,-8.95e-06,2.8720000000000003e-05
,,1729522000.0,770460698.0,,,,,,,,-0.01318875070590725,0.0029388836772657316,0.046730024538484474,0.998816161575383,0.113,0.389,-10.184,0.008367,-0.000373,-0.002416,-2.3400000000000003e-05,-8.939999999999999e-06,2.8840000000000002e-05
,,1729522000.0,795128700.0,,,,,,,,-0.013075082759998163,0.002935240442828401,0.04674701226957566,0.9988168718129614,0.107,0.313,-10.2,0.017658,-0.001274,-0.00037,-2.3400000000000003e-05,-8.720000000000001e-06,2.883e-05
,,1729522000.0,820637583.0,,,,,,,,-0.012890920163905558,0.002917208116460549,0.04678101005297693,0.9988177267012017,0.016,0.286,-10.154,0.015806,-0.004513,0.000115,-2.3460000000000002e-05,-9e-06,2.895e-05
,,1729522000.0,848494732.0,,,,,,,,-0.012689781708560393,0.0029085004015527343,0.04683250587762416,0.9988179145664267,0.023,0.202,-10.131,0.015692,-0.003519,-0.000934,-2.3400000000000003e-05,-8.66e-06,2.889e-05
,,1729522000.0,871353148.0,,,,,,,,-0.012489458613850453,0.002917246286761615,0.04688421921264203,0.998817987967005,0.059,0.196,-10.143,0.016708,0.002072,-0.000485,-2.356e-05,-8.939999999999999e-06,2.8770000000000004e-05
,,1729522000.0,898342409.0,,,,,,,,-0.012272086537179516,0.002935655688563053,0.04692726760724716,0.9988186068414123,0.066,0.202,-10.183,0.018034,0.002731,0.000261,-2.3400000000000003e-05,-8.61e-06,2.883e-05
,,1729522000.0,920947635.0,,,,,,,,-0.012021103659170869,0.0029817677756829508,0.04697922932098159,0.9988190797837985,0.048,0.189,-10.211,0.021678,0.001256,-0.000675,-2.345e-05,-8.720000000000001e-06,2.8770000000000004e-05
,,1729522000.0,945643727.0,,,,,,,,-0.011717879738202729,0.0030301641925887827,0.047048444583406804,0.99881927958049,0.169,0.228,-10.214,0.026175,0.006922,0.002597,-2.334e-05,-8.61e-06,2.8710000000000005e-05
,,1729522000.0,974807377.0,,,,,,,,-0.011377717367546338,0.003036765017547006,0.04710832876948414,0.9988203697193397,0.081,0.195,-10.169,0.02954,-0.002145,-0.000393,-2.3400000000000003e-05,-8.67e-06,2.8710000000000005e-05
,,1729522000.0,997812663.0,,,,,,,,-0.010976924247318725,0.0030551005213107635,0.04715940422092494,0.9988223886599663,0.077,0.21,-10.164,0.036216,-0.004088,-0.000235,-2.3290000000000002e-05,-8.67e-06,2.8720000000000003e-05
,,1729522001.0,20447188.0,,,,,,,,-0.0105935104511575,0.003072838425542965,0.04719309326456405,0.9988248831243913,0.159,0.23,-10.206,0.028085,0.001358,-0.000808,-2.3290000000000002e-05,-8.61e-06,2.8899999999999998e-05
,,1729522001.0,48555360.0,,,,,,,,-0.010217551497581641,0.0030641303582367246,0.047217827406854235,0.9988276575673697,0.102,0.229,-10.164,0.033191,-0.005575,-0.000714,-2.334e-05,-8.67e-06,2.883e-05
,,1729522001.0,70034506.0,,,,,,,,-0.009755249502778104,0.0030769969785446783,0.04724247229363933,0.9988310748111099,0.093,0.173,-10.212,0.039231,-0.000401,-0.000494,-2.3290000000000002e-05,-8.720000000000001e-06,2.8780000000000002e-05
,,1729522001.0,98885951.0,,,,,,,,-0.009302513496459077,0.003106826407521726,0.04727601529674367,0.9988337145140747,0.118,0.186,-10.288,0.036025,0.004453,0.000543,-2.3400000000000003e-05,-8.61e-06,2.8770000000000004e-05
,,1729522001.0,120171340.0,,,,,,,,-0.008762640177738253,0.003140738934229113,0.04731798347187623,0.9988365033058302,0.078,0.135,-10.209,0.045795,0.000927,-9e-05,-2.345e-05,-8.44e-06,2.864e-05
,,1729522001.0,147444632.0,,,,,,,,-0.008267616159362317,0.0031987087263268764,0.04736899123862163,0.9988381217467428,0.048,0.147,-10.126,0.032534,0.001354,0.002131,-2.328e-05,-8.390000000000001e-06,2.8710000000000005e-05
,,1729522001.0,172709703.0,,,,,,,,-0.007922045633099043,0.0032757753803970284,0.04742935031973847,0.9988378082636299,0.08,0.176,-10.219,0.025054,0.004478,0.004414,-2.318e-05,-8.390000000000001e-06,2.8840000000000002e-05
,,1729522001.0,197473522.0,,,,,,,,-0.0075504220351993966,0.0033539297841314528,0.047515722674150815,0.9988363221173161,0.081,0.076,-10.165,0.027168,0.005055,0.002876,-2.3230000000000003e-05,-8.45e-06,2.854e-05
,,1729522001.0,220353609.0,,,,,,,,-0.007222868574458673,0.0034386623177339987,0.04761968500444283,0.9988335053306424,0.032,0.055,-10.091,0.02095,0.00433,0.003038,-2.3330000000000002e-05,-8.22e-06,2.8470000000000004e-05
,,1729522001.0,246361787.0,,,,,,,,-0.007009755673278907,0.0035349316974194406,0.047802558617903806,0.9988259522924289,0.038,0.142,-10.102,0.009319,0.002629,0.012103,-2.317e-05,-8.17e-06,2.8349999999999998e-05
,,1729522001.0,274081484.0,,,,,,,,-0.006776746771635739,0.003589303891896707,0.04787173500841188,0.998824053368785,0.064,0.085,-10.057,0.015106,0.002347,-0.004301,-2.322e-05,-8.12e-06,2.829e-05
,,1729522001.0,298697056.0,,,,,,,,-0.006724031144995963,0.0035830940363800867,0.04787149158832661,0.998824443601275,0.076,0.12,-10.19,-0.003815,-0.004724,-0.00769,-2.311e-05,-7.84e-06,2.8230000000000002e-05
,,1729522001.0,323031265.0,,,,,,,,-0.006693556220099594,0.0034974752555153757,0.04782726365161117,0.9988270705300115,0.2,0.094,-10.071,0.003721,-0.013307,-0.011529,-2.3160000000000002e-05,-7.670000000000001e-06,2.8230000000000002e-05
,,1729522001.0,346792244.0,,,,,,,,-0.006674993776396615,0.0034719277012176114,0.0478619029708145,0.9988256246313142,0.229,0.067,-10.161,-0.000109,0.00533,-0.000815,-2.332e-05,-7.3899999999999995e-06,2.7910000000000002e-05
,,1729522001.0,370162623.0,,,,,,,,-0.006674788074587097,0.0034628035494857702,0.04792286257899175,0.9988227347422425,0.131,0.121,-10.182,0.000464,0.001327,-0.000598,-2.326e-05,-7.17e-06,2.7850000000000003e-05
,,1729522001.0,396391440.0,,,,,,,,-0.006675029807613998,0.0034623375529324084,0.04799259344361011,0.9988193866612188,0.082,0.129,-10.165,0.001673,-0.005504,-0.001204,-2.32e-05,-6.890000000000001e-06,2.761e-05
,,1729522001.0,422473929.0,,,,,,,,-0.006666015641888211,0.0034538073168045975,0.048027373562182916,0.998817804626649,0.102,0.09,-10.164,0.000257,-0.001228,-0.00203,-2.3250000000000003e-05,-6.560000000000001e-06,2.7000000000000002e-05
,,1729522001.0,445301378.0,,,,,,,,-0.006665358177492949,0.0034360256233190462,0.04807956144372285,0.9988153595633484,0.08,0.034,-10.202,0.00148,0.000157,-0.002908,-2.3250000000000003e-05,-6.34e-06,2.7000000000000002e-05
1729522004.0,540034974.0,,,42.33773,-71.08987833333333,9.4,327835.85032259166,4689390.299354748,19.0,T,,,,,,,,,,,,,
,,1729522001.0,470428789.0,,,,,,,,-0.006647655985228612,0.003427858384151698,0.04812302810023889,0.9988134123164666,0.059,0.095,-10.282,0.001702,0.000815,-0.002878,-2.3350000000000002e-05,-6.110000000000001e-06,2.6810000000000003e-05
,,1729522001.0,495155973.0,,,,,,,,-0.006629083574636959,0.0034023179532397052,0.048157669242322454,0.9988119534610369,0.037,0.099,-10.226,0.000264,-0.001692,-0.00259,-2.324e-05,-5.84e-06,2.663e-05
,,1729522001.0,523693296.0,,,,,,,,-0.006602574149490214,0.0033947471804395063,0.048174958206627184,0.9988113210751925,0.071,0.063,-10.182,0.001831,-0.000927,-0.00137,-2.334e-05,-5.500000000000001e-06,2.6379999999999998e-05
,,1729522001.0,544943134.0,,,,,,,,-0.006593047370622453,0.003377677463346368,0.04818353599431502,0.9988110281131297,0.107,0.12,-10.093,0.001681,0.001052,-0.002936,-2.3330000000000002e-05,-5.28e-06,2.595e-05
,,1729522001.0,570766639.0,,,,,,,,-0.006566869069742734,0.0033789962110833123,0.04817473127655281,0.9988116208182894,0.053,0.134,-10.087,0.001086,-0.004574,-0.003626,-2.344e-05,-4.950000000000001e-06,2.57e-05
,,1729522001.0,595073466.0,,,,,,,,-0.0065494070224615085,0.003379894172732652,0.04816595601607776,0.9988121556449403,0.116,0.105,-10.147,0.000148,0.001285,-0.002268,-2.332e-05,-4.62e-06,2.5580000000000002e-05
,,1729522001.0,622800207.0,,,,,,,,-0.006523618931136428,0.0033899853139319064,0.048148488766376354,0.9988131323851959,0.131,0.142,-10.264,4e-05,0.005656,-0.002435,-2.3380000000000003e-05,-4.89e-06,2.5580000000000002e-05
,,1729522001.0,645370591.0,,,,,,,,-0.0064974404677951795,0.0033913025382519705,0.04813968370806135,0.998813722966875,0.081,0.13,-10.194,0.000968,-0.004631,-0.003989,-2.3380000000000003e-05,-4.610000000000001e-06,2.5640000000000002e-05
,,1729522001.0,671488171.0,,,,,,,,-0.006488245437480345,0.003383119563578462,0.04812216799520041,0.9988146545383699,0.048,0.193,-10.191,0.003076,-0.005656,-0.005613,-2.322e-05,-4.79e-06,2.5650000000000003e-05
,,1729522001.0,696172969.0,,,,,,,,-0.006470334382649738,0.0033753560596805074,0.04810462295558093,0.9988156421456106,0.087,0.098,-10.142,0.002381,-0.003082,-0.00566,-2.332e-05,-4.56e-06,2.534e-05
,,1729522001.0,720161423.0,,,,,,,,-0.006478991788454459,0.0033750493477769476,0.048087219781371995,0.9988164250757008,0.106,-0.052,-10.155,0.000537,0.00126,-0.004616,-2.3480000000000002e-05,-4.56e-06,2.551e-05
,,1729522001.0,747977353.0,,,,,,,,-0.0064785137985271775,0.0033664460824456752,0.048069733685795465,0.9988172989106231,0.09,-0.042,-10.151,0.002652,0.000542,-0.004771,-2.359e-05,-4.5500000000000005e-06,2.5690000000000003e-05
,,1729522001.0,770506560.0,,,,,,,,-0.006470187098798812,0.003375638378064023,0.048061041355862893,0.998817740154948,0.089,0.024,-10.222,0.000118,0.004387,-0.003335,-2.36e-05,-4.89e-06,2.5690000000000003e-05
,,1729522001.0,794991015.0,,,,,,,,-0.006461470769456039,0.003376057789642281,0.04806101189603084,0.9988177965799497,0.105,0.13,-10.184,0.000249,0.000453,-0.001946,-2.36e-05,-5.050000000000001e-06,2.617e-05
,,1729522001.0,820653563.0,,,,,,,,-0.006451887109569147,0.0033591008049525624,0.04805215964611897,0.9988183416156571,0.083,0.112,-10.111,0.000396,-0.002073,-0.00553,-2.371e-05,-5.330000000000001e-06,2.6110000000000002e-05
,,1729522001.0,845151938.0,,,,,,,,-0.006451497413964303,0.003350328151366455,0.048060822746192194,0.9988179567865982,0.104,0.217,-10.192,0.003043,-0.002912,-0.004243,-2.371e-05,-5.2699999999999995e-06,2.617e-05
,,1729522001.0,872889807.0,,,,,,,,-0.006460544822634428,0.0033587942289155983,0.048034756282948704,0.9988191237910696,0.151,0.238,-10.186,-0.001641,-0.000519,-0.001914,-2.3610000000000003e-05,-5.56e-06,2.5940000000000002e-05
,,1729522001.0,896990373.0,,,,,,,,-0.00645174053500507,0.003359382318437418,0.04800857792866429,0.9988204373358481,0.151,0.12,-10.176,-0.000231,0.005308,-0.000745,-2.3610000000000003e-05,-5.61e-06,2.6300000000000002e-05
,,1729522001.0,923956711.0,,,,,,,,-0.006442547140721924,0.0033511973438435294,0.04799106273834524,0.9988213658907914,0.05,0.111,-10.207,0.000993,0.003781,0.000208,-2.366e-05,-5.55e-06,2.618e-05
,,1729522001.0,948898492.0,,,,,,,,-0.006416339543972839,0.003352565732541009,0.04797354225603726,0.998822371662386,0.082,0.185,-10.144,0.003596,-0.003194,-0.001849,-2.3610000000000003e-05,-5.55e-06,2.6360000000000002e-05
,,1729522001.0,971866310.0,,,,,,,,-0.006363982759996726,0.003355188689706595,0.04795593389817133,0.9988235433930466,0.049,0.261,-10.22,0.002406,-0.001378,-8.6e-05,-2.371e-05,-5.38e-06,2.6229999999999998e-05
,,1729522001.0,996422784.0,,,,,,,,-0.0063203422586830945,0.0033573914701616287,0.047938354683184865,0.9988246569576255,0.154,0.175,-10.182,0.002431,-0.003129,-0.002258,-2.371e-05,-5.38e-06,2.5990000000000004e-05
,,1729522002.0,23585506.0,,,,,,,,-0.006267062162274595,0.003342742144811768,0.0478944935250372,0.9988271459550884,0.102,0.097,-10.196,0.003093,-0.004104,-0.004942,-2.3820000000000002e-05,-5.2699999999999995e-06,2.6229999999999998e-05
,,1729522002.0,47502733.0,,,,,,,,-0.006232050580231994,0.0033446859036743463,0.04785079470116028,0.9988294529439141,0.081,0.087,-10.216,-0.000356,0.000739,-0.00323,-2.3910000000000003e-05,-1.44e-06,2.297e-05
,,1729522002.0,70459507.0,,,,,,,,-0.006206142819189757,0.0033549800418286335,0.04779845957806642,0.9988320855690365,0.151,0.078,-10.278,0.000465,0.00246,-0.003559,-2.394e-05,-3.1e-06,2.408e-05
,,1729522002.0,95641807.0,,,,,,,,-0.00618731440715011,0.003329934835728152,0.04775466577792168,0.998834380951545,0.061,0.019,-10.207,-0.000951,-0.000469,-0.003247,-2.396e-05,-4.1000000000000006e-06,2.4940000000000002e-05
,,1729522002.0,121724170.0,,,,,,,,-0.006169736119521508,0.003331037520065936,0.047711025230596685,0.9988365715254427,0.071,-0.053,-10.115,0.002266,-0.000149,-0.005486,-2.375e-05,-4.66e-06,2.556e-05
,,1729522002.0,145067543.0,,,,,,,,-0.0061687884918513345,0.0033138198298594433,0.04767605756469136,0.9988383043224593,0.058,0.152,-10.172,0.002027,-0.001756,-0.002304,-2.3860000000000002e-05,-4.49e-06,2.567e-05
,,1729522002.0,170983530.0,,,,,,,,-0.006177418253344025,0.0033135655032110432,0.0476499369408262,0.9988394982663203,0.074,0.269,-10.132,0.000629,-0.007952,-0.00254,-2.381e-05,-5.050000000000001e-06,2.598e-05
,,1729522002.0,200474512.0,,,,,,,,-0.006195179778386195,0.003321612580953859,0.04762389625913309,0.9988406034710817,0.16,0.287,-10.185,-0.001556,-0.00668,-0.003092,-2.375e-05,-4.710000000000001e-06,2.58e-05
,,1729522002.0,221428400.0,,,,,,,,-0.006212525894692485,0.003320944031341283,0.04759780462562305,0.9988417416425734,0.094,0.244,-10.123,-0.0018,-0.004557,-0.002661,-2.3820000000000002e-05,-5.2699999999999995e-06,2.5990000000000004e-05
,,1729522002.0,248061987.0,,,,,,,,-0.006238617567598402,0.0033198068075151565,0.04758045846992089,0.9988424092445206,0.085,0.186,-10.172,-0.001699,-0.001849,-0.001088,-2.387e-05,-4.93e-06,2.586e-05
,,1729522002.0,271991093.0,,,,,,,,-0.00624641799360358,0.0033021219967460124,0.04755423474302394,0.9988436679533855,0.06,0.148,-10.119,-0.001489,-0.005174,-0.003559,-2.371e-05,-5.38e-06,2.617e-05
,,1729522002.0,295042891.0,,,,,,,,-0.006255462487097754,0.0033105873493209648,0.04752816547941719,0.9988448241276702,0.149,0.093,-10.115,-0.001786,-0.00158,-0.001341,-2.371e-05,-5.330000000000001e-06,2.6110000000000002e-05
